mission_id,time,real_x,real_y,real_z,vx,vy,vz,ax,ay,az,roll,pitch,yaw,wind_x,wind_y,wind_z,velocity,rain,fog,snow,is_attack
11,1745179475.0581577,0.0,0.0,-5.0,-0.3169721066951751,0.2499664723873138,0.0390634648501873,-0.0843186751008033,-0.0150062274187803,-8.012899398803711,-0.0975366251508445,0.0335426739985847,-2.865958303932299,2.83625938595715,1.593909991709617,0.5324808409099615,9.85,0.13,0.01,0.022,0
11,1745179475.061067,2.0,0.0,-5.0,-0.3169721066951751,0.2499664723873138,0.0390634648501873,-0.0352608673274517,-0.0004602065309882,-7.975026130676269,-0.0943461534327601,0.0330471822935846,-2.865895189605625,3.1604073218614976,1.749657986964717,0.4642523795822602,9.85,0.13,0.01,0.022,0
11,1745179475.065055,5.521189212799072,2.4335005283355717,-2.2358932495117188,-0.3169721066951751,0.2499664723873138,0.0390634648501873,-0.0835192203521728,0.0409121140837669,-7.981540679931641,-0.0943461534327601,0.0330471822935846,-2.865895189605625,3.127026118227172,2.3928847051439783,0.562605873700933,9.85,0.13,0.01,0.022,0
11,1745179475.0672596,5.521189212799072,2.4335005283355717,-2.2358932495117188,-0.3169721066951751,0.2499664723873138,0.0390634648501873,-0.05714563280344,0.0045169196091592,-7.952919006347656,-0.0943461534327601,0.0330471822935846,-2.865895189605625,2.749810989093138,1.7974324788583558,0.5192972746479574,9.85,0.13,0.01,0.022,0
11,1745179475.0694904,5.521189212799072,2.4335005283355717,-2.2358932495117188,-0.3169721066951751,0.2499664723873138,0.0390634648501873,-0.0630792677402496,0.0275807753205299,-7.946620464324951,-0.0943461534327601,0.0330471822935846,-2.865895189605625,3.350216934405643,1.6233524857608843,0.5378971534298086,9.85,0.13,0.01,0.022,0
11,1745179475.0722656,10.0,0.0,-5.0,-0.3372102379798889,0.2359068542718887,0.087599866092205,-0.1460117697715759,0.0238950997591018,-7.975763320922852,-0.0886062856474589,0.0317421033682974,-2.865756787086471,2.6727615021766997,1.9383804323043448,0.5906533421165546,9.85,0.13,0.01,0.022,0
11,1745179475.0753844,12.0,0.0,-5.0,-0.3372102379798889,0.2359068542718887,0.087599866092205,-0.0730686634778976,0.0236454270780086,-7.998363018035889,-0.0886062856474589,0.0317421033682974,-2.865756787086471,3.2706329552051234,1.887169703974839,0.5908518393425671,9.85,0.13,0.01,0.022,0
11,1745179475.0786448,14.0,0.0,-5.0,-0.3372102379798889,0.2359068542718887,0.087599866092205,-0.047494564205408,0.021959763020277,-8.088359832763672,-0.0886062856474589,0.0317421033682974,-2.865756787086471,3.204193878026964,1.569640131500308,0.5227870941161997,9.85,0.13,0.01,0.022,0
11,1745179475.082343,16.0,0.0,-5.0,-0.3372102379798889,0.2359068542718887,0.087599866092205,-0.0651377066969871,-0.0380091294646263,-8.039748191833496,-0.0838285308788101,0.03047734285701,-2.865651100043728,2.6873973440841703,1.8385774632608607,0.5233859532297398,9.85,0.13,0.01,0.022,0
11,1745179475.0867176,21.923692541971768,1.0360796353614132,-5.0,-0.3372102379798889,0.2359068542718887,0.087599866092205,-0.0281106047332286,0.0561791062355041,-8.085078239440918,-0.0838285308788101,0.03047734285701,-2.865651100043728,2.671190967996539,1.892765748506056,0.4751093120926064,9.85,0.13,0.01,0.022,0
11,1745179475.089238,22.736145436885263,2.1817052930319165,-5.0,-0.3372102379798889,0.2359068542718887,0.087599866092205,-0.0645490139722824,-0.0522030219435691,-8.137438774108887,-0.0838285308788101,0.03047734285701,-2.865651100043728,3.223814897238026,2.047045594637569,0.4173660766907538,9.85,0.13,0.01,0.022,0
11,1745179475.091077,22.76064067596227,2.281683268013474,-5.0,-0.3372102379798889,0.2359068542718887,0.087599866092205,-0.0645490139722824,-0.0522030219435691,-8.137438774108887,-0.0790808809111063,0.0291084637918705,-2.8655482743973613,3.336459598367298,1.842689935346995,0.4696505362026321,9.85,0.13,0.01,0.022,0
11,1745179475.0930123,16.0,0.0,-5.0,-0.3372102379798889,0.2359068542718887,0.087599866092205,-0.0350347384810447,0.0164298899471759,-8.017439842224121,-0.0790808809111063,0.0291084637918705,-2.8655482743973613,3.041473397488734,1.5171717924895902,0.5916653389291711,9.85,0.13,0.01,0.022,0
11,1745179475.0960605,14.0,0.0,-5.0,-0.3372102379798889,0.2359068542718887,0.087599866092205,-0.1431823521852493,0.0187692586332559,-8.11440658569336,-0.0790808809111063,0.0291084637918705,-2.8655482743973613,3.37532260571843,1.8833488360784056,0.5642667169636689,9.85,0.13,0.01,0.022,0
11,1745179475.0989213,12.0,0.0,-5.0,-0.3372102379798889,0.2359068542718887,0.087599866092205,-0.0320369377732276,0.0219881292432546,-8.144064903259277,-0.0790808809111063,0.0291084637918705,-2.8655482743973613,2.7394540904769458,1.8268648980386388,0.56274499518866,9.85,0.13,0.01,0.022,0
11,1745179475.155298,10.0,0.0,-5.0,-0.362623393535614,0.2176959067583084,0.1972363740205764,-0.0038439482450485,0.0273922383785247,-8.401365280151367,-0.0486260459365444,0.018942566008099,-2.865077388924776,2.527450549694562,1.5920599850431134,0.5283293135834225,9.85,0.13,0.01,0.022,0
11,1745179475.201282,5.493947982788086,2.485525608062744,-2.2164459228515625,-0.3719711005687713,0.2105571776628494,0.250324934720993,-0.0906989723443985,-0.0347943603992462,-8.503386497497559,-0.0276547036126744,0.0107682104801717,-2.864924686269642,2.623364759532609,2.3638187800047907,0.4091162681805405,9.85,0.13,0.01,0.022,0
11,1745179475.2483227,5.477133750915527,2.50811505317688,-2.1979217529296875,-0.3792230784893036,0.2059176862239837,0.3306232094764709,-0.0644591078162193,-0.0071179289370775,-8.79629135131836,-0.0161962346151918,0.0059126407101234,-2.8649846352840576,3.243646877682902,2.046846703389204,0.5881055660027219,9.85,0.13,0.01,0.022,0
11,1745179475.2948468,5.466720581054688,2.520766019821167,-2.185249328613281,-0.3796883523464203,0.206168994307518,0.3715980350971222,-0.0797474235296249,-0.0637091919779777,-8.817882537841797,-0.0067200973526583,0.0016092854091943,-2.865091903843489,3.1966390157059457,1.6468672164736362,0.4823965429212634,9.85,0.13,0.01,0.022,0
11,1745179476.147541,2.0,0.0,-5.0,-0.4509748816490173,0.1812429279088974,0.737548291683197,-0.0375106483697891,0.0321436747908592,-9.623628616333008,-0.001434202506523,5.39635670965931e-05,-2.866581832817338,3.380619616957509,1.9984174047759544,0.4514258355504761,9.85,0.13,0.01,0.022,0
11,1745179476.194225,0.0,0.0,-5.0,-0.468802660703659,0.1703382283449173,0.753934383392334,-0.0810469835996627,0.0545902028679847,-9.667104721069336,-0.0014185141290973,-4.393657604702917e-06,-2.866494789377456,2.587064302832953,2.134750114606724,0.4992831302950187,9.85,0.13,0.01,0.022,0
108,1745185511.1526406,0.6609123349189758,0.547927975654602,-3.3933258056640625,-0.6287851333618164,-0.2687073945999145,-1.822471022605896,-0.0643950700759887,-0.093145802617073,-9.13352870941162,-0.0260914292403236,0.0615102157345901,-3.1242701103939345,3.172519782972444,1.9260219677405652,0.5625800023319614,9.43,0.02,0.159,0.12,0
108,1745185511.1550858,0.644271731376648,0.5447810888290405,-3.4359207153320312,-0.6347602009773254,-0.2770960927009582,-1.804330825805664,-0.1442356407642364,0.0049581751227378,-9.19931983947754,-0.0260914292403236,0.0615102157345901,-3.1242701103939345,2.605225896698874,2.236920820522173,0.4714920718720063,9.43,0.02,0.159,0.12,0
108,1745185512.1593692,0.3367393910884857,0.1978382617235183,-4.818511962890625,0.6594462990760803,-0.3996095359325409,-0.7583710551261902,-0.0575506463646888,-0.1331984996795654,-8.440362930297852,0.2419567333304076,-0.0057443353512656,-3.129105003371351,3.1060721615777105,1.546464424486257,0.570827891432561,9.43,0.02,0.159,0.12,0
108,1745185513.1643062,1.3078267574310305,-0.2417450100183487,-5.284614562988281,1.892061829566956,-0.1297932118177414,0.1692281365394592,-0.0952123329043388,-0.0176009982824325,-9.220253944396973,0.0362573001296258,-0.0494317243126014,-3.129033237909713,3.2777886736099178,1.8278863358438404,0.4519903160648627,9.43,0.02,0.159,0.12,0
108,1745185514.169716,3.3313257694244385,-0.3417941927909851,-5.138969421386719,1.8685187101364136,0.2247266918420791,0.2740879654884338,-0.0064273150637745,-0.0096053574234247,-10.11312198638916,-0.1460516820463969,-0.0229681052790291,-3.1311625556934626,3.010003577657619,2.0818488425244355,0.5758557173461205,9.43,0.02,0.159,0.12,0
108,1745185514.1726377,3.3313257694244385,-0.3417941927909851,-5.138969421386719,1.8685187101364136,0.2247266918420791,0.2740879654884338,-0.0558111444115638,-0.0477095544338226,-10.118894577026367,-0.1460516820463969,-0.0229681052790291,-3.1311625556934626,2.919934743804393,2.085675854629902,0.4834090722684885,9.43,0.02,0.159,0.12,0
108,1745185516.1792142,9.921944618225098,2.0833675861358643,-4.88177490234375,2.441082239151001,1.246761441230774,-0.0580965802073478,-0.0171498004347085,0.0141882766038179,-10.50411891937256,-0.3473283257066763,0.1378510998926097,-3.095989362023989,3.3646377588368988,2.0419813514877827,0.4229308709394924,9.43,0.02,0.159,0.12,0
108,1745185518.2404134,7.900388717651367,0.6687684655189514,-4.699226379394531,-2.9789209365844727,-1.977852702140808,-0.4039796590805053,-0.2836358547210693,-0.1153004541993141,-10.797661781311035,0.1966631711476153,-0.1034085454954135,-3.0786489203077285,2.997292611435232,1.9335027989361255,0.4908595478769759,9.43,0.02,0.159,0.12,0
108,1745185518.2427678,7.900388717651367,0.6687684655189514,-4.699226379394531,-2.9789209365844727,-1.977852702140808,-0.4039796590805053,-0.3692005574703216,-0.0689563527703285,-10.710782051086426,0.2020271703507647,-0.1066119262328436,-3.079402586439989,2.895505447237526,1.7166830911113915,0.4436548918936453,9.43,0.02,0.159,0.12,0
108,1745185518.2454095,7.900388717651367,0.6687684655189514,-4.699226379394531,-2.9789209365844727,-1.977852702140808,-0.4039796590805053,-0.4297007322311401,-0.0838893204927444,-10.715106964111328,0.2020271703507647,-0.1066119262328436,-3.079402586439989,3.4860741090296585,1.6468142113663502,0.448138349023323,9.43,0.02,0.159,0.12,0
108,1745185520.1592474,10.527552604675291,0.202784925699234,-4.962654113769531,1.8934826850891116,0.919205605983734,0.0106294127181172,-0.0798023045063018,-0.0231081210076808,-10.619305610656738,-0.3510300546205667,0.1298106512883535,-3.073521038186985,3.272624790709231,2.1953965696520856,0.5983380058573118,9.43,0.02,0.159,0.12,0
108,1745185520.2059555,10.704545974731444,0.2931604981422424,-4.953521728515625,1.7332980632781982,0.8592112064361572,0.0097158160060644,-0.026824951171875,-0.0596098154783248,-11.1036958694458,-0.3569439549814679,0.1338869907042119,-3.07423532970005,3.149733959154544,2.4757773042924778,0.466472917561718,9.43,0.02,0.159,0.12,0
108,1745185522.2122278,9.136249542236328,0.3889005482196808,-4.851806640625,-2.775960683822632,-0.8893449306488037,-0.2492038607597351,-0.3199359178543091,0.0184674337506294,-10.161062240600586,0.1301800687296653,-0.0101777322333373,-3.045206422367062,2.689291116410192,2.498286841723759,0.4822855215709402,9.43,0.02,0.159,0.12,0
108,1745185523.2169795,6.1778059005737305,-0.6037499308586121,-4.9411468505859375,-1.440578818321228,-0.2660317420959472,-0.2165254056453704,-0.1735661178827285,0.0857914984226226,-10.249801635742188,0.3056445897725026,-0.0905875833155674,-3.0628239062099607,3.3072476154214137,1.6232078580363951,0.4826029670849197,9.43,0.02,0.159,0.12,0
108,1745185523.2728157,6.037635803222656,-0.6430984735488892,-4.949790954589844,-1.2921661138534546,-0.2060866504907608,-0.2065248787403106,-0.1328173726797104,0.0016766749322414,-9.979209899902344,0.3072728450798128,-0.0901335000514531,-3.062555197308008,2.767639239149487,1.965582704193682,0.4851601554831596,9.43,0.02,0.159,0.12,0
108,1745185523.2752826,6.037635803222656,-0.6430984735488892,-4.949790954589844,-1.2921661138534546,-0.2060866504907608,-0.2065248787403106,-0.1328173726797104,0.0016766749322414,-9.979209899902344,0.3036638992351427,-0.0902246598239781,-3.0621274860141336,3.340420775928612,2.362765094853716,0.580413270365161,9.43,0.02,0.159,0.12,0
108,1745185524.2815292,4.309053421020508,-0.6433337926864624,-5.066314697265625,-1.12769615650177,0.5424795150756836,-0.0416503064334392,-0.0700741484761238,-0.0506432652473449,-9.755427360534668,0.1075205246426592,-0.0182789900781807,-3.052302256638513,2.663821502909849,1.8292234823777247,0.4154916439923961,9.43,0.02,0.159,0.12,0
108,1745185524.283919,4.309053421020508,-0.6433337926864624,-5.066314697265625,-1.12769615650177,0.5424795150756836,-0.0416503064334392,-0.0888971462845802,0.0115744303911924,-9.722442626953123,0.1075205246426592,-0.0182789900781807,-3.052302256638513,3.088636720881853,1.888266419598966,0.5142221309224965,9.43,0.02,0.159,0.12,0
108,1745185525.2885177,3.152772665023804,0.0835525095462799,-5.0574798583984375,-1.4223098754882812,0.4959144294261932,0.0492844879627227,-0.0815663486719131,0.0231244657188653,-9.876043319702148,-0.001114694805699,0.0914244408352447,-3.0422355129678333,2.873223774483211,1.848155608294617,0.5841931717751281,9.43,0.02,0.159,0.12,0
108,1745185526.2939425,1.950146436691284,0.5670065879821777,-5.016578674316406,-1.399701476097107,-0.1071626767516136,0.0184960756450891,-0.2584926187992096,-0.0471139103174209,-9.895477294921877,0.0248673027478101,0.1030223901862754,-3.036164652148313,3.49503038666122,2.138359714501094,0.5986646158009289,9.43,0.02,0.159,0.12,0
108,1745185527.299378,0.7096648216247559,0.3699206709861755,-5.0106048583984375,-1.2333555221557615,-0.4709125757217407,-0.0132061848416924,-0.2367281913757324,-0.0175394564867019,-9.825053215026855,0.0504083511122806,0.0274726871431607,-3.036669151397657,3.4313412966941588,2.302254925137749,0.4318500141445265,9.43,0.02,0.159,0.12,0
109,1745185553.723172,-0.0218461286276578,-0.1773772090673446,-3.47271728515625,0.0496607348322868,0.298529177904129,-1.8244261741638184,-0.1677907407283783,-0.0862733423709869,-8.852876663208008,-0.0164467818612304,0.0103252310791236,-3.03897535048601,3.474007192876253,2.484732899113093,0.4753240848500588,7.13,0.0,0.043,0.181,0
109,1745185553.725808,-0.0204794649034738,-0.1634371429681778,-3.5284652709960938,0.0478768348693847,0.3033269345760345,-1.784867286682129,-0.0926147475838661,0.0100538600236177,-8.77897834777832,-0.0165196343246416,0.0113279449662635,-3.038936971507761,3.488417378552144,2.157726286002841,0.4389822622567985,7.13,0.0,0.043,0.181,0
109,1745185554.730711,0.5454548001289368,0.178334578871727,-4.78253173828125,1.2407373189926147,0.1459514498710632,-0.6405559182167053,-0.012482825666666,-0.0971477180719375,-8.425293922424316,0.0593131220351198,0.0680316083658636,-3.0420852744946183,2.8292985648100903,1.593755921943616,0.5382575665547846,7.13,0.0,0.043,0.181,0
109,1745185555.735385,2.023250102996826,0.3307831287384033,-5.179931640625,1.6858428716659546,-0.1247408688068389,0.1408413350582122,0.0303050577640533,-0.0458671972155571,-9.423670768737791,-0.0806908212437422,0.0462798975068228,-3.037415638733616,3.2898972051996536,2.451460087222722,0.5624411952551412,7.13,0.0,0.043,0.181,0
109,1745185556.7400153,3.78249192237854,0.16912741959095,-5.051521301269531,1.2801159620285034,-0.2719616889953613,0.1996345221996307,-0.0589106492698192,-0.0272742323577404,-10.034456253051758,-0.1576202068939977,-0.009015585278632,-3.0255158820155743,3.0199811011462665,1.5714271438604048,0.4230855235406593,7.13,0.0,0.043,0.181,0
109,1745185556.795489,3.838106393814087,0.1580407321453094,-5.04412841796875,1.234339714050293,-0.2720192968845367,0.1945674568414688,-0.0129858944565057,-0.0640903785824775,-10.022637367248535,-0.1583988582263639,-0.0119439167793401,-3.0250720099545214,2.633206833091576,2.091533219736184,0.4410808945018913,7.13,0.0,0.043,0.181,0
109,1745185557.7997298,5.339368343353272,-0.1741635054349899,-4.895599365234375,1.234312653541565,-0.1034602224826812,-0.0019540106877684,-0.0596975348889827,0.0201692059636116,-10.051225662231444,-0.0838618100777863,-0.0393569804171393,-3.0157199718415537,2.6893244837085004,2.4677987531067327,0.5934838911993401,7.13,0.0,0.043,0.181,0
109,1745185557.8020444,5.339368343353272,-0.1741635054349899,-4.895599365234375,1.234312653541565,-0.1034602224826812,-0.0019540106877684,-0.10808727145195,0.0206522420048713,-9.944128036499023,-0.0838618100777863,-0.0393569804171393,-3.0157199718415537,3.303588399885324,1.556624489484105,0.43181113450288,7.13,0.0,0.043,0.181,0
109,1745185558.8076313,6.731365203857422,-0.2689437866210937,-4.890228271484375,1.6490826606750488,0.1621831059455871,-0.0959294140338897,-0.0248350817710161,-0.0307583659887313,-9.89796543121338,-0.0408334355359373,-0.018957029949472,-3.012358756809457,3.2575157286158727,1.90122597796082,0.4682060658016133,7.13,0.0,0.043,0.181,0
109,1745185559.8125982,8.221282958984375,-0.054288126528263,-4.940055847167969,1.4654290676116943,0.2232376337051391,-0.0704822912812233,0.0175815969705581,0.0379388928413391,-9.83311367034912,-0.101986118725713,0.0174412868424857,-3.0117465280345237,2.5312834881571336,1.7729257821344868,0.5206631439297442,7.13,0.0,0.043,0.181,0
109,1745185559.8150697,8.221282958984375,-0.054288126528263,-4.940055847167969,1.4654290676116943,0.2232376337051391,-0.0704822912812233,0.0819836035370826,0.0103262681514024,-9.858187675476074,-0.101986118725713,0.0174412868424857,-3.0117465280345237,2.719297256565816,1.9342291151161104,0.448437192199476,7.13,0.0,0.043,0.181,0
109,1745185559.8175445,8.221282958984375,-0.054288126528263,-4.940055847167969,1.4654290676116943,0.2232376337051391,-0.0704822912812233,0.0154564790427684,-0.0569328069686889,-9.80162239074707,-0.101986118725713,0.0174412868424857,-3.0117465280345237,3.438203840570865,2.41533132695378,0.5812946874974336,7.13,0.0,0.043,0.181,0
109,1745185560.8224523,10.047157287597656,0.4962513744831085,-4.982505798339844,2.260077714920044,0.7812563180923462,-0.0226028840988874,0.0115155130624771,-0.0131398756057024,-9.82153606414795,-0.0467533957950941,0.0075750043919427,-2.9924563209638158,2.5273963940034103,2.4944961580397917,0.4426160078303048,7.13,0.0,0.043,0.181,0
109,1745185560.8246367,10.047157287597656,0.4962513744831085,-4.982505798339844,2.260077714920044,0.7812563180923462,-0.0226028840988874,-0.0613080039620399,0.028749793767929,-9.808222770690918,-0.0497254344234859,0.0085086331553473,-2.992394304311492,3.325000118451767,1.7513264035237837,0.5299243433806549,7.13,0.0,0.043,0.181,0
109,1745185562.8311908,7.806159973144531,0.3672505021095276,-4.816642761230469,-3.4237635135650635,-0.7966320514678955,-0.1922928541898727,-0.3840329945087433,-0.0361437909305095,-10.367244720458984,0.120336422707201,-0.004192518183487,-2.9605392171553397,2.6262741374429046,2.3079155373787783,0.4193540782862043,7.13,0.0,0.043,0.181,0
109,1745185563.8358252,4.232486248016357,-0.5134958624839783,-4.8930511474609375,-1.828046798706055,-0.1902753859758377,-0.2649836540222168,-0.1173752024769783,-0.0367954857647419,-10.377991676330566,0.3515402160954209,-0.0386382792240382,-2.9751709934225814,2.973758415931769,1.877220258209516,0.4117680295053265,7.13,0.0,0.043,0.181,0
109,1745185563.8942008,4.135148525238037,-0.5305586457252502,-4.8987579345703125,-1.727815866470337,-0.1586229056119918,-0.2582553029060364,-0.212163358926773,-0.0054433075711131,-10.047945022583008,0.3527363293340325,-0.0372550389033501,-2.9749523775256344,3.319293232646013,1.6461151519985842,0.5704289649850995,7.13,0.0,0.043,0.181,0
109,1745185563.8967075,4.135148525238037,-0.5305586457252502,-4.8987579345703125,-1.727815866470337,-0.1586229056119918,-0.2582553029060364,-0.212163358926773,-0.0054433075711131,-10.047945022583008,0.3527363293340325,-0.0372550389033501,-2.9749523775256344,3.2111773860041413,1.7841378590964756,0.49054422636698,7.13,0.0,0.043,0.181,0
109,1745185564.9012194,2.13547945022583,-0.4190985858440399,-5.0409088134765625,-1.127021551132202,0.498658537864685,-0.0738558992743492,-0.1394504606723785,-0.011261336505413,-9.741512298583984,0.1396090809923984,0.0276060783203549,-2.966976744821071,3.0787853160075382,1.945475897921196,0.4901878640717674,7.13,0.0,0.043,0.181,0
109,1745185564.95003,2.053962230682373,-0.3748737871646881,-5.046958923339844,-1.0195438861846924,0.5172309279441833,-0.0596200190484523,-0.110558807849884,0.0139523576945066,-9.7182035446167,0.1364719278296137,0.0324560247067724,-2.9669102473472204,3.4232684064479297,2.262669035742197,0.4275584081042939,7.13,0.0,0.043,0.181,0
109,1745185565.9542155,1.1014093160629272,0.3392639756202698,-5.046638488769531,-1.2062838077545166,0.3006933033466339,0.0373463258147239,-0.0724556967616081,0.0632949396967887,-9.861937522888184,-0.0256843885407134,0.1051157166282813,-2.9550572760093683,2.6321318582951587,1.7138368007236175,0.5325857414763979,7.13,0.0,0.043,0.181,0
110,1745185570.3611207,0.1104668453335762,-0.5533327460289001,-3.219833374023437,-0.0370817147195339,0.7269511222839355,-1.997631549835205,-0.1468220353126526,0.0522774457931518,-9.136350631713867,-0.0177756309240058,0.0043222872786508,-2.936080830867219,3.22526331977846,1.697931088918595,0.5710147314634075,4.96,0.07,0.029,0.156,0
110,1745185571.3659606,0.2877768278121948,0.2565758228302002,-4.711982727050781,0.558600664138794,0.5007098913192749,-0.846259593963623,-0.082251101732254,-0.0099791036918759,-8.266682624816895,0.0211571436819171,0.1233187295452666,-2.943791698530246,2.76281758711727,2.4071197417215098,0.424125704637627,4.96,0.07,0.029,0.156,0
110,1745185571.3685968,0.2877768278121948,0.2565758228302002,-4.711982727050781,0.558600664138794,0.5007098913192749,-0.846259593963623,-0.0919676050543785,-0.0730458348989486,-8.26689338684082,0.0211571436819171,0.1233187295452666,-2.943791698530246,2.6672751225785136,2.067825393281269,0.4714490460611716,4.96,0.07,0.029,0.156,0
110,1745185572.3727393,1.3258190155029297,0.680381715297699,-5.264251708984375,1.7934627532958984,-0.1388091146945953,0.1349311470985412,-0.0389378815889358,-0.0037541352212429,-9.214576721191406,0.0083971381684091,0.1120874157450759,-2.9513637406663897,3.369201771421032,2.46282226595945,0.4447728882891854,4.96,0.07,0.029,0.156,0
110,1745185573.3771183,3.2532920837402344,0.437897264957428,-5.1459503173828125,1.845919489860535,-0.4940384924411773,0.282770425081253,-0.0216690059751272,-0.1808098703622818,-10.07493019104004,-0.1421549897215846,-0.0055120429501807,-2.94154175869318,3.1999132552743816,2.13416530715709,0.4690776692364671,4.96,0.07,0.029,0.156,0
110,1745185573.379661,3.2532920837402344,0.437897264957428,-5.1459503173828125,1.845919489860535,-0.4940384924411773,0.282770425081253,-0.0216690059751272,-0.1808098703622818,-10.07493019104004,-0.1421549897215846,-0.0055120429501807,-2.94154175869318,2.7962128138303126,2.484569110341612,0.5148919272461087,4.96,0.07,0.029,0.156,0
110,1745185574.3846953,5.321539402008057,-0.1133809089660644,-4.9383392333984375,1.6963297128677368,-0.2897520959377289,0.0611819401383399,0.0652122199535369,-0.0175797287374734,-10.08559513092041,-0.1336228412753332,-0.072965436968357,-2.9291495074051115,2.7395405453991,1.9625247987083267,0.5818527930252478,4.96,0.07,0.029,0.156,0
110,1745185574.3869598,5.321539402008057,-0.1133809089660644,-4.9383392333984375,1.6963297128677368,-0.2897520959377289,0.0611819401383399,-0.0774578899145126,-0.0358354561030864,-10.205251693725586,-0.1336228412753332,-0.072965436968357,-2.9291495074051115,3.0974623370591265,2.023954569868541,0.4373798029558778,4.96,0.07,0.029,0.156,0
110,1745185575.391274,7.066932678222656,-0.3764667510986328,-4.8920440673828125,1.625713586807251,0.1540762186050415,-0.0799028202891349,-0.0346721336245536,-0.0064770951867103,-9.977370262145996,-0.0944589989581063,-0.0531156067624424,-2.928918638557425,3.345466514099652,2.3713087746672725,0.5934541584426161,4.96,0.07,0.029,0.156,0
110,1745185575.393636,7.121786594390869,-0.3762042820453644,-4.892669677734375,1.5883910655975342,0.1686003804206848,-0.0805488750338554,-0.0279832053929567,-0.0012239478528499,-9.901175498962402,-0.0944589989581063,-0.0531156067624424,-2.928918638557425,2.7566540796141403,2.3365626869862277,0.5183512779644155,4.96,0.07,0.029,0.156,0
110,1745185576.4009488,8.73062515258789,-0.1540600508451461,-4.938133239746094,1.7911851406097412,0.3429904282093048,-0.0820347294211387,-0.0635133534669876,0.0112442336976528,-9.81663703918457,-0.0720435676838932,0.0139532923225809,-2.934475782638051,2.9131092441622486,2.2824323839863965,0.4715344826763474,4.96,0.07,0.029,0.156,0
110,1745185576.403605,8.73062515258789,-0.1540600508451461,-4.938133239746094,1.7911851406097412,0.3429904282093048,-0.0820347294211387,-0.0024040574207901,-0.0147598888725042,-9.80060577392578,-0.0720435676838932,0.0139532923225809,-2.934475782638051,2.7340487737543624,1.9648876670738236,0.4284953440815176,4.96,0.07,0.029,0.156,0
110,1745185576.4084346,8.73062515258789,-0.1540600508451461,-4.938133239746094,1.7911851406097412,0.3429904282093048,-0.0820347294211387,0.0276421681046485,0.0031694332137703,-9.756559371948242,-0.0720435676838932,0.0139532923225809,-2.934475782638051,2.7792243571502286,1.7805482696420578,0.5626580163360371,4.96,0.07,0.029,0.156,0
110,1745185576.41082,8.73062515258789,-0.1540600508451461,-4.938133239746094,1.7911851406097412,0.3429904282093048,-0.0820347294211387,0.0276421681046485,0.0031694332137703,-9.756559371948242,-0.0720435676838932,0.0139532923225809,-2.934475782638051,2.71140668580073,1.6339174265829062,0.4047792904511079,4.96,0.07,0.029,0.156,0
110,1745185579.4646585,5.483235836029053,-0.0271540563553571,-4.926185607910156,-1.4373472929000854,-0.1568106114864349,-0.142788216471672,-0.1523583829402923,0.0639167726039886,-10.17105197906494,0.2409972971114913,0.0451715376509385,-2.9270625845720706,3.2750242773646105,2.1298058289755124,0.4210319548189798,4.96,0.07,0.029,0.156,0
110,1745185579.47229,5.483235836029053,-0.0271540563553571,-4.926185607910156,-1.4373472929000854,-0.1568106114864349,-0.142788216471672,-0.1795547157526016,0.016810830682516,-10.111676216125488,0.2409972971114913,0.0451715376509385,-2.9270625845720706,3.334198106821389,2.1959883084712613,0.4701760952203644,4.96,0.07,0.029,0.156,0
110,1745185581.521809,7.689650535583496,2.4819912910461426,-4.948989868164063,2.684762954711914,1.44345223903656,-0.0615790486335754,-0.0076790265738964,-0.0167028084397315,-10.27219295501709,-0.2330987543493401,0.152253656459199,-2.915104758237314,3.096609877692813,1.7309329271398282,0.4260218196760351,4.96,0.07,0.029,0.156,0
110,1745185583.4397094,2.656451940536499,-0.5620285868644714,-4.77191162109375,-2.8538975715637207,-1.179912805557251,-0.5781332850456238,-0.3271332681179046,-0.0531947873532772,-11.018988609313965,0.4244987677783494,-0.1161383198095354,-2.9053596200722214,3.447913511961468,1.7308237696436546,0.5680085599363992,4.96,0.07,0.029,0.156,0
110,1745185583.489883,2.405879497528076,-0.6764235496520996,-4.790748596191406,-2.654332399368286,-1.062685489654541,-0.5715240836143494,-0.2479017823934555,0.031749203801155,-11.100732803344728,0.4366497203646166,-0.1158468183079878,-2.905430422801898,3.206122132788141,2.374323200378546,0.5292406972154655,4.96,0.07,0.029,0.156,0
110,1745185583.538766,2.26781964302063,-0.7384666800498962,-4.801979064941406,-2.537667989730835,-0.9945622682571412,-0.5645977258682251,-0.2722915112972259,0.0378441177308559,-10.85977268218994,0.4466372014469547,-0.1151301127241303,-2.9053166801094443,3.054913627227344,1.5424869210448486,0.5972246466532489,4.96,0.07,0.029,0.156,0
110,1745185584.5893338,0.3156351745128631,-1.4192231893539429,-5.064956665039063,0.5793873071670532,0.598029613494873,0.0807791054248809,-0.037349734455347,-0.0156026799231767,-10.209863662719728,0.083187300091883,-0.0307797053511498,-2.8788655944685906,3.141828574710213,1.8643885820975323,0.5877986995231457,4.96,0.07,0.029,0.156,0
111,1745185614.9666471,-0.0063179801218211,-0.9805430769920348,-3.429107666015625,0.0366529189050197,0.9269572496414183,-1.8351799249649048,-0.0277582313865423,0.083101749420166,-9.004366874694824,0.058948375816744,-0.0261456028905062,-2.0590726244565736,3.100519546715745,2.084839794039067,0.4688810652528934,4.79,0.15,0.047,0.085,0
111,1745185615.9711857,0.1517799347639084,-0.0415237247943878,-4.758888244628906,0.5960500836372375,0.7399199604988098,-0.687974214553833,-0.0895939618349075,0.004514904692769,-8.43869686126709,-0.0457088898570796,0.1079400001552931,-2.0630721636036284,2.95399091990142,2.449442833790744,0.4700265643207836,4.79,0.15,0.047,0.085,0
111,1745185615.9732423,0.1517799347639084,-0.0415237247943878,-4.758888244628906,0.5960500836372375,0.7399199604988098,-0.687974214553833,-0.0200506653636693,0.1263649761676788,-8.47909927368164,-0.0457088898570796,0.1079400001552931,-2.0630721636036284,3.0712586465097558,2.1682598039631387,0.5482663112097531,4.79,0.15,0.047,0.085,0
111,1745185616.9788427,1.2802644968032837,0.6270042061805725,-5.1845703125,1.8860735893249512,0.0320651791989803,0.1413255035877227,0.0403161309659481,0.0667972564697265,-9.3972749710083,-0.0795284257093994,0.0919388621247076,-2.0688300379135307,3.494722192910185,1.5058019771574482,0.5405297963801152,4.79,0.15,0.047,0.085,0
111,1745185617.983438,3.431797504425049,0.6599389314651489,-5.04705810546875,1.875046133995056,-0.533051609992981,0.2178692072629928,0.0440022274851799,0.073116585612297,-10.155839920043944,-0.1157881823055341,-0.1153182287974196,-2.0374381964844304,3.301321869752851,1.7501964182710568,0.5181697757823795,4.79,0.15,0.047,0.085,0
111,1745185617.9861758,3.431797504425049,0.6599389314651489,-5.04705810546875,1.875046133995056,-0.533051609992981,0.2178692072629928,-0.056678868830204,-0.0273571163415908,-10.146804809570312,-0.1157881823055341,-0.1153182287974196,-2.0374381964844304,3.116879792560449,1.5030296472270344,0.4376314996455223,4.79,0.15,0.047,0.085,0
111,1745185618.9905276,5.642757892608643,0.0045458925887942,-4.87359619140625,1.5268666744232178,-0.5690481066703796,-0.0011613657698035,-0.0939841270446777,0.0115300035104155,-10.244321823120115,-0.0146871262553351,-0.1724760700430543,-2.0250069558899453,2.7433434427573298,2.2011800849718024,0.5714321821627838,4.79,0.15,0.047,0.085,0
111,1745185619.0484445,5.754376411437988,-0.0485775098204612,-4.867431640625,1.429195761680603,-0.5438056588172913,-0.0100750811398029,-0.067924179136753,-0.0137164443731307,-10.118060111999512,-0.0101183136074412,-0.1765504870627663,-2.0250596170185857,3.2588254125544127,2.312775060759863,0.4055376704924716,4.79,0.15,0.047,0.085,0
111,1745185620.0531373,7.244208335876465,-0.70401531457901,-4.866714477539063,1.2443801164627075,0.0411262102425098,-0.1256561279296875,-0.0952844396233558,0.1117470115423202,-9.885560989379885,0.072481219354957,-0.1085118023444501,-2.009829223803313,3.0831981423192163,2.0225010579344893,0.4056940634091203,4.79,0.15,0.047,0.085,0
111,1745185620.0554054,7.244208335876465,-0.70401531457901,-4.866714477539063,1.2443801164627075,0.0411262102425098,-0.1256561279296875,-0.0441271699965,0.028394216671586,-9.963461875915527,0.072481219354957,-0.1085118023444501,-2.009829223803313,2.7754000873938764,2.317795414638676,0.4973993166368176,4.79,0.15,0.047,0.085,0
111,1745185621.063502,8.422743797302246,-0.6330852508544922,-4.9388427734375,1.6516995429992676,0.5913988947868347,-0.0900250747799873,6.240047514438629e-05,-0.0154283195734024,-9.738174438476562,0.0405963753247001,0.0026174270353448,-1.9987964819694757,2.871497572120408,2.2622482588619848,0.4405431944602873,4.79,0.15,0.047,0.085,0
111,1745185621.0660756,8.422743797302246,-0.6330852508544922,-4.9388427734375,1.6516995429992676,0.5913988947868347,-0.0900250747799873,-0.0571176372468471,-0.0085353925824165,-9.73178482055664,0.0391427910058943,0.0021258814395911,-1.998541546051685,3.0155303540218457,1.5071214995050044,0.509524538274398,4.79,0.15,0.047,0.085,0
111,1745185621.06951,8.422743797302246,-0.6330852508544922,-4.9388427734375,1.6516995429992676,0.5913988947868347,-0.0900250747799873,0.0030406415462493,0.0522660762071609,-9.779216766357422,0.0391427910058943,0.0021258814395911,-1.998541546051685,2.5426570495688736,2.4722162654579,0.4814189201929406,4.79,0.15,0.047,0.085,0
111,1745185621.0718195,8.422743797302246,-0.6330852508544922,-4.9388427734375,1.6516995429992676,0.5913988947868347,-0.0900250747799873,0.086999274790287,0.0316993445158004,-9.801535606384276,0.0391427910058943,0.0021258814395911,-1.998541546051685,2.733118696722208,1.584101821044988,0.4077610736719436,4.79,0.15,0.047,0.085,0
111,1745185623.0779023,6.6876301765441895,0.2530920505523681,-4.916351318359375,-1.958342432975769,-0.0938441306352615,-0.1197256222367286,-0.0869542136788368,0.0941439867019653,-10.022990226745604,0.0248727280037487,0.130447338782476,-2.006958281918647,2.5226273416959346,2.206192348637701,0.5360993863523834,4.79,0.15,0.047,0.085,0
111,1745185623.080322,6.6876301765441895,0.2530920505523681,-4.916351318359375,-1.958342432975769,-0.0938441306352615,-0.1197256222367286,-0.0612722486257553,0.1470163166522979,-10.089216232299805,0.0248727280037487,0.130447338782476,-2.006958281918647,2.8622243372474494,1.7384239264486203,0.4443379661660385,4.79,0.15,0.047,0.085,0
111,1745185633.1078355,8.098329623060348,2.2823570337449905,-5.0,-1.025368332862854,-0.0025799821596592,0.7167993187904358,-0.0792363435029983,0.0961148887872695,-9.543999671936035,-1.1302730801165134e-05,0.000652373495216,-1.9737791944509293,3.157338736497394,2.0467820528154177,0.4847289336165181,4.79,0.15,0.047,0.085,0
111,1745185643.1344953,6.228656975160781,1.984896775173944,-5.0,-0.0306159649044275,-0.004570456687361,0.027295671403408,0.0087846703827381,0.0272230356931686,-9.894086837768556,0.0127353160629631,0.0173214180437753,-1.9755471325659304,3.4081773463940843,1.508890372030261,0.4172606985902065,4.79,0.15,0.047,0.085,0
111,1745185654.0751035,4.446378352416364,1.4114978957591138,-5.0,0.0152725856751203,-0.0051010833121836,0.0102770552039146,0.0903143435716629,0.0044191968627274,-9.84951877593994,0.0087903489087081,0.0209492036338692,-1.953234148703633,2.5674775831210708,2.418395903524773,0.5799812093496417,4.79,0.15,0.047,0.085,0
111,1745185664.104103,1.0,0.0,-5.0,0.0076817455701529,-0.0045725381933152,0.0083563765510916,-0.0195906292647123,-0.0379420518875122,-9.79133129119873,0.0078650655803528,0.0193463390235722,-1.9310213946949035,2.9979077246985235,2.464553722063715,0.5967186935203852,4.79,0.15,0.047,0.085,0
111,1745185674.132485,0.0,0.0,-5.0,0.0042182984761893,-0.005730481352657,0.0083400616422295,-0.0567135252058506,0.0080345598980784,-9.877321243286133,0.0072814904085891,0.0185098160822625,-1.9115623544388431,3.232244730092328,1.6504829928649856,0.4098078769015062,4.79,0.15,0.047,0.085,0
113,1745185906.4189315,0.0,0.0,-5.0,-0.0003250008739996,-0.0006016181432642,-0.0071344007737934,0.0253908913582563,0.0175233110785484,-9.868709564208984,0.0058248460053437,0.0134523201065986,-1.8251413454877008,2.9705704594607365,2.341807513433154,0.4614862948767477,7.13,0.04,0.038,0.154,0
113,1745185916.4867885,1.0,0.0,-5.0,0.0031019698362797,0.002297808881849,0.001670250785537,-0.0257505252957344,-0.0221550911664962,-9.786168098449709,0.0059936451475602,0.0137068563632659,-1.82473618790642,2.765540966955513,1.9702915751956984,0.4348462841531496,7.13,0.04,0.038,0.154,0
113,1745185927.4590693,2.0,0.0,-5.0,-0.0018100312445312,-0.0022791700903326,-0.0033581655006855,-0.060088638216257,0.0188778396695852,-9.799907684326172,0.0056257429220619,0.0136313931161829,-1.8244574135462728,3.2417031130829645,2.3757303608007017,0.5226294982304306,7.13,0.04,0.038,0.154,0
113,1745185937.5275838,3.0,0.0,-5.0,-0.0026614237576723,-0.0002267731761094,-0.0023631886579096,-0.0693366080522537,0.0670729279518127,-9.768444061279297,0.005840847489931,0.0134686944714067,-1.8241062609161407,2.5676951707155884,2.386583303997324,0.4092360026812367,7.13,0.04,0.038,0.154,0
113,1745185947.6047518,4.0,0.0,-5.0,0.0020637984853237,-0.001381043693982,0.0002768571430351,-0.0426129288971424,0.0277168396860361,-9.727328300476074,0.0058326598714082,0.013740280575169,-1.8237405876833976,2.9174842400445047,2.1004419059243467,0.525483041377427,7.13,0.04,0.038,0.154,0
113,1745185958.5600622,5.0,0.0,-5.0,-0.000911057810299,-0.0037489649839699,-0.0006024410249665,-0.0275441296398639,-0.0087657216936349,-9.781367301940918,0.0057852419582551,0.0134665634625312,-1.8232081914214744,3.264732031557295,1.889048647269273,0.5531712899945209,7.13,0.04,0.038,0.154,0
113,1745185968.6340103,6.0,0.0,-5.0,-0.0018438595579937,0.003608128754422,0.0004577315121423,0.0033646775409579,-0.0222865361720323,-9.868757247924805,0.0057833921220752,0.0133762912744123,-1.8227670601196744,3.090131681030434,2.216085192318068,0.5709747822098598,7.13,0.04,0.038,0.154,0
113,1745185978.7065165,7.0,0.0,-5.0,-0.0016207894077524,-0.0014041408430784,-0.0015920455334708,0.0304621569812297,-0.0615223869681358,-9.830838203430176,0.0058475196458658,0.0139614790587699,-1.8223022061379337,2.9624078545595784,2.298450087254044,0.4161546266994121,7.13,0.04,0.038,0.154,0
113,1745185989.6599743,8.0,0.0,-5.0,-0.0042050797492265,-0.0005106502212584,-0.000771367282141,-0.0439390763640403,0.0203980524092912,-9.84633445739746,0.005975162633051,0.0135235312913002,-1.8217144174504627,2.825962758159061,1.7723179700119034,0.5212312243262734,7.13,0.04,0.038,0.154,0
113,1745185999.7376354,9.0,0.0,-5.0,0.0004627650196198,0.000496503082104,-0.0041333590634167,0.0101473927497863,-0.0077618807554244,-9.835331916809082,0.0060876774496925,0.0138269890053281,-1.8212086172180384,2.998496676341024,2.072385979284654,0.4878386510272798,7.13,0.04,0.038,0.154,0
113,1745186009.8188715,10.0,0.0,-5.0,-0.0016138057690113,-0.0012191087007522,-0.002867050236091,0.0073415818624198,0.0294353775680065,-9.786210060119627,0.0058166428745467,0.0136423232087242,-1.8208072094562453,3.4018553475799176,2.4893954666979274,0.4036750306340776,7.13,0.04,0.038,0.154,0
113,1745186020.7814286,13.14430222777748,1.2407130552273589,-5.0,0.0026113083586096,0.0046073533594608,0.0025832536630332,0.0140720000490546,0.0010204109130427,-9.84152603149414,0.0057466140145104,0.0138162162321492,-1.820196560159568,2.967905949865741,2.282043647580886,0.4143026096038582,7.13,0.04,0.038,0.154,0
113,1745186030.852527,8.0,0.0,-5.0,-0.002452376531437,-0.0041394857689738,-0.002964346203953,-0.0020662501920014,-0.0536106638610363,-9.761520385742188,0.0057238757440369,0.0134651918516464,-1.819674150840472,2.8765962914961394,1.552477145427795,0.4410774748978147,7.13,0.04,0.038,0.154,0
113,1745186040.925201,7.0,0.0,-5.0,0.002963873790577,-0.0007422235794365,-0.0017305032815784,0.0353146828711032,0.0195977091789245,-9.862098693847656,0.0057735194721547,0.0139182155626567,-1.8190714658618468,3.162704459517284,2.3814943281607914,0.5882291304089712,7.13,0.04,0.038,0.154,0
113,1745186051.860531,6.0,0.0,-5.0,-0.0028728952165693,-0.0014304077485576,0.0017702664481475,-0.0203776378184556,0.015718774870038,-9.787407875061035,0.0056563611680723,0.0136196840384381,-1.81839659721018,2.8663626978503625,1.7179243559676496,0.4057779300755285,7.13,0.04,0.038,0.154,0
113,1745186061.9322157,5.0,0.0,-5.0,-4.906157482764684e-05,0.0003114212013315,-0.0016544914105907,0.0460782498121261,-0.0199322178959846,-9.764077186584473,0.0057111358643722,0.013840569602343,-1.8179435298777495,2.6627744325890235,1.8048328176548547,0.5548794088613903,7.13,0.04,0.038,0.154,0
113,1745186071.999682,4.0,0.0,-5.0,0.0046517173759639,0.0046660844236612,0.0029378517065197,0.037856351584196,0.023795137181878,-9.835318565368652,0.0058120977681304,0.0137657513701715,-1.8174817381279509,3.069416638428006,1.8839825855148624,0.5740139901730767,7.13,0.04,0.038,0.154,0
113,1745186083.000621,3.0,0.0,-5.0,-0.0002953783550765,0.0030415907967835,0.0007585197454318,-0.0195771940052509,0.0130747137591242,-9.822972297668455,0.0059938177374522,0.0138142212586862,-1.816934405253115,2.600896272015601,1.6465733072101632,0.5653668726472252,7.13,0.04,0.038,0.154,0
113,1745186093.079945,2.0,0.0,-5.0,-0.0018893619999289,0.001741365995258,0.0005048286984674,0.0387232080101966,0.0281540565192699,-9.77684211730957,0.0057274643455204,0.0139549978692545,-1.8163498730024223,2.801928611770095,1.8527258331893155,0.4362643004196329,7.13,0.04,0.038,0.154,0
113,1745186103.1570058,1.0,0.0,-5.0,0.0004773141117766,-0.0005577536066994,0.0006555836880579,-0.0245465170592069,0.0280545875430107,-9.81528377532959,0.0056126849628249,0.0136867432896755,-1.8158417554508155,2.523303267480462,1.6958661944021127,0.4584376751173472,7.13,0.04,0.038,0.154,0
113,1745186113.18569,0.0,0.0,-5.0,0.000721403863281,0.0012300967937335,-0.0053239502012729,-0.0007815471617504,-0.0096206292510032,-9.804160118103027,0.0056841900247379,0.0135503330337467,-1.8152755031416112,3.025187168917924,2.325322638623439,0.4933177727301303,7.13,0.04,0.038,0.154,0
116,1745186575.950849,0.0,0.0,-5.0,0.0027705535758286,0.0032752901315689,-0.0006082129548303,-0.0176695231348276,0.0024128959048539,-9.839442253112791,0.0058103662789631,0.0135449995018975,-1.7904036452667245,2.8322373006185444,2.4735546010351026,0.5574202547084253,7.61,0.0,0.095,0.114,0
116,1745186586.8991406,1.0,0.0,-5.0,-0.0044658202677965,-0.0039076865650713,0.0055515840649604,0.0036249738186597,-0.0297592096030712,-9.806448936462402,0.0056596439141581,0.0135083319757789,-1.7898831800847963,3.3244238416419827,1.678656062809639,0.443794838746357,7.61,0.0,0.095,0.114,0
116,1745186596.9265816,2.0,0.0,-5.0,-0.0020398222841322,0.0047799777239561,0.0012628611875697,-0.022439956665039,-0.0898720920085907,-9.765639305114746,0.0058517682575707,0.013711812402309,-1.7890106139091102,2.724995428542176,1.6551501709692684,0.5871479668006483,7.61,0.0,0.095,0.114,0
116,1745186606.952716,3.0,0.0,-5.0,0.0020546503365039,-0.0006251725135371,-0.0016305687604472,-0.0626532733440399,0.0722507834434509,-9.83847427368164,0.0058703809173357,0.0139530890984815,-1.7883724335871818,3.0228220274463995,1.8365926090109024,0.5714256246450468,7.61,0.0,0.095,0.114,0
116,1745186617.915205,4.0,0.0,-5.0,-0.0013001969782635,-0.0010968412971124,-0.0002815281332004,-0.0630006417632103,0.0143698938190937,-9.80714988708496,0.0057813962487752,0.0135418325025059,-1.7881089691626733,3.359898861909281,1.864277913446436,0.4657542311858346,7.61,0.0,0.095,0.114,0
116,1745186627.9448345,5.0,0.0,-5.0,-0.0010315006365999,-0.0014947669114917,0.0011198830325156,-0.0011764568043872,0.051020972430706,-9.741771697998049,0.0056861658393654,0.013638559495591,-1.787879185813811,3.3708532094498898,1.9976386220239388,0.5991320662044649,7.61,0.0,0.095,0.114,0
116,1745186637.9733658,6.0,0.0,-5.0,0.0011090133339166,-0.002146776067093,0.0011104078730568,0.0290942192077636,0.0141644021496176,-9.85096549987793,0.0054859632304999,0.013597178615305,-1.787405893279763,3.4268957302057323,2.002212793098522,0.5112332938458953,7.61,0.0,0.095,0.114,0
116,1745186648.8512795,7.0,0.0,-5.0,-0.0046548563987016,0.0013826354406774,-0.0023219613358378,0.0536332726478576,0.0761398524045944,-9.756494522094728,0.0057876998717095,0.0135897588235243,-1.7864682186772145,2.9818429126465595,1.9347380834336836,0.4360766812029397,7.61,0.0,0.095,0.114,0
116,1745186658.8779097,8.0,0.0,-5.0,-0.000284840731183,0.0017142144497483,0.0051298420876264,0.0570952706038951,-0.0024838137906044,-9.848008155822754,0.0059216350401994,0.0133633370057229,-1.7861320990009164,2.912715464817465,2.2804747307015125,0.526982407325616,7.61,0.0,0.095,0.114,0
116,1745186668.9039092,9.0,0.0,-5.0,0.0006544575444422,-0.0045751896686851,0.0014986526221036,-0.0290175955742597,-0.0510540641844272,-9.78646469116211,0.0057108077362022,0.0135515925016837,-1.7853029567669,3.207051012963959,2.204640305624265,0.4787393371184336,7.61,0.0,0.095,0.114,0
116,1745186679.8388453,10.0,0.0,-5.0,-0.0020887874998152,0.0011661519529297,-0.0013645596336573,0.0384131111204624,0.0392314381897449,-9.812472343444824,0.0058339326438173,0.0135972378026118,-1.7846015718960226,3.2012366682968425,2.3492247622871663,0.466343431119433,7.61,0.0,0.095,0.114,0
116,1745186689.8656929,12.737513690719116,1.7566018623073194,-5.0,-0.004741882905364,-0.0018710566218942,0.0047249933704733,0.0129768708720803,-0.0552037730813026,-9.840126037597656,0.0057419964311592,0.0134637445326476,-1.784091745712385,2.5862906020356773,1.814667344599111,0.5840558636433997,7.61,0.0,0.095,0.114,0
116,1745186699.8923786,11.511814877735866,1.3987548427344887,-5.0,0.0008181720622815,5.42739981028717e-05,-0.0023196300026029,-0.0377804189920425,0.0278377942740917,-9.803415298461914,0.0057448430506263,0.0138595132166918,-1.7834463618948737,2.823041522277885,1.9199310616633896,0.4428844184904232,7.61,0.0,0.095,0.114,0
116,1745186710.8234353,9.16558225129682,2.8412771816924383,-5.0,-0.001350472564809,0.0012554387794807,-0.0014985982561483,-0.0650808587670326,-0.0559321530163288,-9.842381477355955,0.0058398764506421,0.0141079405044596,-1.78282370652539,2.891022098213984,2.047190802896999,0.4159463748367893,7.61,0.0,0.095,0.114,0
116,1745186720.8494115,10.60323115658026,2.889797697477245,-5.0,-0.00137520278804,-0.0030250276904553,-0.0012829318875446,0.0176446307450532,-0.0939220786094665,-9.789706230163574,0.0055945004103898,0.0134532191260594,-1.7822877200305762,3.1525717997391123,2.1190811257564377,0.5002883741641244,7.61,0.0,0.095,0.114,0
116,1745186730.8738446,5.0,0.0,-5.0,0.0031609919387847,-0.0003986915980931,-0.0046577262692153,-0.0231846868991851,-0.0077297831885516,-9.861541748046877,0.0056407659127969,0.0135295941679098,-1.781627307686125,2.8007352772869534,1.889308140355348,0.4060794896465852,7.61,0.0,0.095,0.114,0
116,1745186741.7930615,4.0,0.0,-5.0,-0.0035859409254044,0.0056451237760484,-0.0054905540309846,0.0357306897640228,0.0060420129448175,-9.754534721374512,0.0057581592807741,0.013346551731634,-1.780973270057776,2.607187297148347,1.6418780766516674,0.4204160404259837,7.61,0.0,0.095,0.114,0
116,1745186751.8236623,3.0,0.0,-5.0,0.0015621461207047,-0.0004125406849198,0.0003110840916633,0.0836891680955886,-0.0107044652104377,-9.826714515686035,0.0056279668248108,0.0136186133434652,-1.7800884594611228,3.263680296862588,2.3546036930284373,0.4893395204702632,7.61,0.0,0.095,0.114,0
116,1745186761.8492248,2.0,0.0,-5.0,0.0005674544954672,-0.002215972635895,0.0008909005555324,-0.0128205167129635,-0.0005700711626559,-9.811344146728516,0.0055922057585666,0.0135091638345124,-1.7795581060070615,2.630836384259775,2.1960750844859875,0.4389035313885639,7.61,0.0,0.095,0.114,0
116,1745186772.7520907,1.0,0.0,-5.0,0.0052253119647502,0.0032493087928742,-0.0020644676405936,0.0339100658893585,-0.0288577154278755,-9.78990364074707,0.0059302015109768,0.0136605720668315,-1.7792501778824223,2.535545031378578,2.1428856923882185,0.4929665335678925,7.61,0.0,0.095,0.114,0
116,1745186782.776188,0.0,0.0,-5.0,-0.001415861188434,0.000999832060188,0.0003344126162119,0.0117442552000284,0.025463942438364,-9.8093843460083,0.0056452441672701,0.0138310217351848,-1.7784745376499915,2.6793979077322887,2.216885931280785,0.5770202300353359,7.61,0.0,0.095,0.114,0
117,1745186798.05683,0.0,0.0,-5.0,-0.0009494736441411,-1.2848349797422998e-05,-0.0092928688973188,-0.0174751617014408,-0.047243844717741,-9.75754165649414,0.0058066454995807,0.0134442472821964,-1.7772199687574397,2.5369322617615206,2.0498872945359,0.5586688145764557,4.36,0.19,0.098,0.073,0
117,1745186808.967406,1.0,0.0,-5.0,-0.0033877249807119,-0.003343494143337,-0.0021063853055238,-0.0337682850658893,-0.0226461831480264,-9.838061332702637,0.0056455689069885,0.013562607790759,-1.7765297883029694,2.669616947897553,2.0054556179952767,0.5317196155657922,4.36,0.19,0.098,0.073,0
117,1745186819.0368922,2.0,0.0,-5.0,-0.0008931149495765,-0.002931096823886,-0.0035562324337661,0.0234633479267358,0.0406110063195228,-9.697056770324709,0.0056123037234002,0.0136276712380613,-1.7759652742405525,2.730798689997321,1.7485858987539582,0.5197634125484885,4.36,0.19,0.098,0.073,0
117,1745186829.1039803,3.0,0.0,-5.0,-0.0027004776056855,-0.0003625926037784,-0.002314515877515,-0.0801472291350364,0.0465423353016376,-9.823201179504396,0.0058423072832793,0.0134567321664704,-1.7753195932289934,3.183616315309261,2.126583740445568,0.4013146934446694,4.36,0.19,0.098,0.073,0
117,1745186840.106209,4.0,0.0,-5.0,-0.0004176987276878,-0.0010876698652282,-0.0032567679882049,0.0376499369740486,-0.0396146774291992,-9.687603950500488,0.0059343502469162,0.0138140910404361,-1.7745250484031465,2.608229099501194,2.0878714450135742,0.4207135561406865,4.36,0.19,0.098,0.073,0
117,1745186850.1792517,5.0,0.0,-5.0,-0.0007156924111768,-0.0035871199797838,-0.0003765467263292,-0.0201157964766025,-0.0568864122033119,-9.819851875305176,0.0057769198161602,0.013451772544276,-1.7741324686442752,2.8199849596353035,2.105346435852878,0.5555254931081633,4.36,0.19,0.098,0.073,0
117,1745186860.2532475,6.0,0.0,-5.0,-0.0020257397554814,0.0035124365240335,0.0004875930317211,-0.0211765635758638,-0.0065016918815672,-9.8215913772583,0.0057704100496357,0.0133812527485896,-1.7739075606512238,2.824768343176414,1.5961702652337804,0.5776203079268216,4.36,0.19,0.098,0.073,0
117,1745186871.1921616,7.0,0.0,-5.0,0.003527860622853,-7.457474566763267e-07,0.0058743353001773,-0.0169426798820495,-0.0406012013554573,-9.85910415649414,0.0059504801404422,0.0139159714444032,-1.7732293880400198,2.927385672029064,2.131630667483672,0.4295930919571274,4.36,0.19,0.098,0.073,0
117,1745186881.2703426,8.0,0.0,-5.0,-0.0036536471452564,-0.0004788188380189,-0.0009145004441961,-0.0461354181170463,-0.0318441577255725,-9.828951835632324,0.005972397944122,0.0135235923451616,-1.7726424356316095,3.102952244771074,1.793664951451168,0.4382109582314658,4.36,0.19,0.098,0.073,0
117,1745186891.3470464,13.442705680235944,1.119673645087477,-5.0,0.0012395266676321,0.00051019503735,-0.0034495997242629,-0.0441775992512702,0.0065035289153456,-9.80463981628418,0.00611748200001,0.0138398786876113,-1.772338548908155,3.096760843384046,1.8314982598854312,0.5482299381015476,4.36,0.19,0.098,0.073,0
117,1745186902.3352146,13.24734938869024,2.7190036101704718,-5.0,0.0020078236702829,0.0019107493571937,-0.0039165900088846,-0.0132348192855715,0.0134271997958421,-9.759631156921388,0.0058774440319229,0.0137942888136214,-1.7718050796750686,2.64550955473819,2.2181409306542053,0.5547663447159872,4.36,0.19,0.098,0.073,0
117,1745186912.4011824,12.129037638935111,2.440209681112289,-5.0,0.0030396182555705,0.003861563745886,0.002389790257439,0.0658696889877319,-0.031017780303955,-9.802677154541016,0.0057275139027769,0.0138161081658879,-1.7712412212083335,2.913775399217084,1.898755239321238,0.5777289354322884,4.36,0.19,0.098,0.073,0
117,1745186922.4779336,8.0,0.0,-5.0,-0.0031432860996574,-0.004349154420197,-0.0027740029618144,0.0303648263216018,-0.1080823093652725,-9.810708045959473,0.0057274083574988,0.0134565460796428,-1.7710877418855548,2.6479123425498248,1.780271040777404,0.4746069639984606,4.36,0.19,0.098,0.073,0
117,1745186933.4338243,7.0,0.0,-5.0,-0.0006876740371808,0.0014807938132435,-0.0022357006091624,0.0296339467167854,-0.0518506616353988,-9.77626895904541,0.0059443753896876,0.0137164920574782,-1.769856257176378,2.502320130673273,1.6992058062069564,0.5681395099292714,4.36,0.19,0.098,0.073,0
117,1745186943.512204,6.0,0.0,-5.0,-0.0026187798939645,-0.0030821054242551,0.0017292863922193,0.0031915826257318,0.0221236925572156,-9.871037483215332,0.0056545587973408,0.0135892582990624,-1.7692580171123111,2.642816316472821,1.7168093546223964,0.5582766063843357,4.36,0.19,0.098,0.073,0
117,1745186953.5772698,5.0,0.0,-5.0,0.0007623170968145,0.0012377296807244,-0.0023081286344677,0.0105032529681921,-0.0107279047369956,-9.849586486816406,0.0056631911506818,0.0138139132433075,-1.7687695395386949,2.717229950042069,1.5381100182844911,0.4156169857217728,4.36,0.19,0.098,0.073,0
117,1745186964.562577,4.0,0.0,-5.0,-0.0016357528511434,-0.0027189154643565,0.0057664173655211,-0.0661397874355316,-0.0869730040431022,-9.821371078491213,0.005758953011846,0.0136133607872925,-1.7684876537062648,2.803869654203776,2.2016889834856386,0.4377904851711594,4.36,0.19,0.098,0.073,0
117,1745186974.6290164,3.0,0.0,-5.0,-0.0005624444456771,0.0031419550068676,0.0006351347547024,0.0118593759834766,-0.0205692276358604,-9.770391464233398,0.0060065760342459,0.0138278337155807,-1.7679992471982309,3.0748329093644853,2.05238213960352,0.4192520874151204,4.36,0.19,0.098,0.073,0
117,1745186984.705463,2.0,0.0,-5.0,-0.0013861032202839,0.0013448923127725,0.0014945544535294,-0.0292967353016138,-0.0612210929393768,-9.82496166229248,0.0056803778947893,0.0140019634139256,-1.76750411905991,2.894803740616107,1.851337929585038,0.4466976501291918,4.36,0.19,0.098,0.073,0
117,1745186995.6667566,1.0,0.0,-5.0,-0.0016165691195055,-0.0006366049055941,0.0018042153678834,-0.0175820682197809,0.0265556499361991,-9.777508735656738,0.0055638433544873,0.0136869703199023,-1.7667639193410014,2.627755979519298,2.123751283294726,0.46702461580207,4.36,0.19,0.098,0.073,0
117,1745187005.7319536,0.0,0.0,-5.0,0.0035572915803641,-0.0021503751631826,-0.0074447691440582,-0.0184195004403591,0.0093822516500949,-9.737460136413574,0.0058073292328777,0.0136015200306943,-1.766304391076849,3.209666161910909,2.4058152584146058,0.5227282174690759,4.36,0.19,0.098,0.073,0
118,1745187026.138217,0.0,0.0,-5.0,-0.0031811979133635,-0.0058995122089982,0.005387695506215,0.0004117093048989,-0.0169845297932624,-9.780622482299805,0.0055362934080594,0.0135013751038764,-1.7655001575869502,3.2749563595994324,2.352376655809702,0.5781315352789802,8.39,0.05,0.067,0.054,0
118,1745187036.2072215,1.0,0.0,-5.0,-0.0030505978502333,0.0017264825291931,0.0013205476570874,-0.0012494698166847,0.027052978053689,-9.744705200195312,0.0058779536324249,0.0136071510665156,-1.7646853940417584,3.317248007420919,1.8811251208336677,0.4285807045832343,8.39,0.05,0.067,0.054,0
118,1745187046.2758043,2.0,0.0,-5.0,-0.0006924255867488,-0.0022948193363845,-0.0004709917411673,-0.0203067138791084,-0.0027550491504371,-9.812212944030762,0.0058166772751915,0.0139282831425953,-1.7638427914235204,3.053195424698661,1.659841703758505,0.5971055723804566,8.39,0.05,0.067,0.054,0
118,1745187057.2483308,3.0,0.0,-5.0,-0.0030658077448606,-3.976674634031952e-05,-0.0025750370696187,-0.0044709620997309,0.0444212667644023,-9.822571754455566,0.0058029111290778,0.0135400682135217,-1.7639571690510316,2.932462100608996,1.8491873541481667,0.5234475534307137,8.39,0.05,0.067,0.054,0
118,1745187067.3157814,4.0,0.0,-5.0,0.0003872825764119,-0.0011993509251624,-0.0011989652412012,0.0018815922085195,-0.0504616163671016,-9.830965042114258,0.0057224195721475,0.0136554794453417,-1.7636854148174148,2.695048035319715,1.716015386327984,0.4174290245903838,8.39,0.05,0.067,0.054,0
118,1745187077.3841152,5.0,0.0,-5.0,2.7314828912494704e-05,-0.0001930983562488,0.0026637045666575,-0.0264636781066656,-0.0396902672946453,-9.808295249938965,0.0055521015453156,0.0135870231851662,-1.763258360690921,3.2302550167031123,2.462985879197842,0.4603412978327859,8.39,0.05,0.067,0.054,0
118,1745187088.2879837,6.0,0.0,-5.0,-0.0059466804377734,-0.0005759545019827,-0.0006224279059097,0.032494232058525,-0.072417989373207,-9.87173843383789,0.0057937820166113,0.0135670164550703,-1.7621344542075716,3.077217758006624,1.6658816373900986,0.5776658272259554,8.39,0.05,0.067,0.054,0
118,1745187098.3602836,7.0,0.0,-5.0,-2.4176777515094727e-05,0.0023835506290197,0.0046126581728458,-0.0041338047012686,0.0600969903171062,-9.868363380432127,0.0059987276721341,0.0133521314958391,-1.7619895466247284,3.0372342174643743,2.2032648236657857,0.4584353152762568,8.39,0.05,0.067,0.054,0
118,1745187108.4399607,8.0,0.0,-5.0,-0.0002306911046616,-0.0042243120260536,0.0004755303671117,-0.0248804632574319,-0.0051182126626372,-9.764960289001465,0.0056722114318283,0.0135750952734525,-1.7610068248862534,3.4379136629752205,2.089705866622453,0.5486154372345386,8.39,0.05,0.067,0.054,0
118,1745187118.472928,9.0,0.0,-5.0,0.0032630925998091,0.0010310928337275,-0.0030552805401384,0.0063032433390617,-0.0067019774578511,-9.815688133239746,0.0060178626919456,0.0135804315905417,-1.76026979084023,2.66948472623344,1.7690755374231484,0.4177372004331573,8.39,0.05,0.067,0.054,0
118,1745187128.5477026,10.0,0.0,-5.0,-0.0012312564067542,-0.0024001558776944,0.0011655972339212,0.0527551285922527,-0.0488179735839366,-9.75462532043457,0.0056462521528803,0.013523555834188,-1.759822393304555,3.131325519050768,2.0404774915617407,0.4705146717103909,8.39,0.05,0.067,0.054,0
118,1745187138.6235886,13.839334921634164,1.4080035942836566,-5.0,0.000593458127696,0.0007919193012639,0.0029515165369957,0.016750456765294,-0.0051389886066317,-9.680652618408203,0.0058519898176084,0.013846836963776,-1.759106469292632,3.2776873336877728,2.1078017103969984,0.4963581706841817,8.39,0.05,0.067,0.054,0
118,1745187149.5966184,11.746259247010856,2.1787798523525206,-5.0,-0.0016675626393407,0.000285225600237,0.0051849456503987,0.0737334042787551,-0.0606478564441204,-9.800419807434082,0.0058102398069773,0.0140176393279295,-1.758385839670933,3.445788514853032,2.414268425082552,0.493506573684025,8.39,0.05,0.067,0.054,0
118,1745187159.6700995,9.658509615744492,1.869668499811294,-5.0,-0.0007145723211579,-0.0022101744543761,0.0015519297448918,0.0243499185889959,-0.0120269544422626,-9.818044662475586,0.0055549939079169,0.0135826241878493,-1.7578685137732433,2.5820584990335536,1.8653354057299532,0.4475041571650047,8.39,0.05,0.067,0.054,0
118,1745187169.7456963,10.28557752588002,2.1993630602872543,-5.0,0.0034282687120139,0.0012876479886472,-0.000807863951195,0.0402404181659221,-0.0180652178823947,-9.830215454101562,0.0057288410700067,0.0137608860814567,-1.7573058114345192,3.382176773763528,2.156327637707503,0.4032145985213714,8.39,0.05,0.067,0.054,0
118,1745187180.7050948,5.0,0.0,-5.0,-0.0022615399211645,0.0045035262592136,-0.0011927224695682,0.0600704625248909,0.0205159932374954,-9.76432991027832,0.0058946842621493,0.0133377285655854,-1.7567398524446989,2.980996635359784,1.6383639178275269,0.4684286728119206,8.39,0.05,0.067,0.054,0
118,1745187190.7840617,4.0,0.0,-5.0,0.0005732745630666,-0.0019079732010141,0.0028506042435765,0.0707202702760696,-0.0428881719708442,-9.816376686096191,0.0055192022248241,0.0136827987190412,-1.755400472057821,3.487818768112786,2.397678212248048,0.499949119634744,8.39,0.05,0.067,0.054,0
118,1745187200.864733,3.0,0.0,-5.0,0.000434372894233,-0.0025294229853898,0.0015218247426673,0.0177347231656312,-0.0523692741990089,-9.744352340698242,0.0055015004717326,0.0134710136195822,-1.754747394758183,3.271022653919913,2.113977459728765,0.5784369107725225,8.39,0.05,0.067,0.054,0
118,1745187211.8671408,2.0,0.0,-5.0,0.0034852931275963,0.0016479766927659,-0.0005329057457856,0.0015267035923898,-0.0135302487760782,-9.879672050476074,0.005862541955066,0.0137131977157552,-1.7546223252386957,2.9466542519545627,1.5580038339641116,0.5508533187021127,8.39,0.05,0.067,0.054,0
118,1745187221.9446917,1.0,0.0,-5.0,0.0009673205786384,-0.0003036693378817,-0.0003139860345982,-0.0274599194526672,-0.0760232955217361,-9.83628749847412,0.0056353901668222,0.0138138297310662,-1.7539083811950225,2.8038110830834624,1.6326752713374426,0.5993471162303465,8.39,0.05,0.067,0.054,0
118,1745187232.0176668,0.0,0.0,-5.0,0.0024647710379213,-0.0020842782687395,0.0019792737439274,0.0075704040937125,-0.0173650439828634,-9.738633155822754,0.0056812214737699,0.0136308211748153,-1.753344010735952,3.3474013003861125,1.7922613001259853,0.5673992053753353,8.39,0.05,0.067,0.054,0
119,1745187257.0178092,0.0,0.0,-5.0,-0.0029723700135946,0.0003296894428785,-0.0106218429282307,0.0647903829813003,-0.0131485601887106,-9.807753562927246,0.0058901184277446,0.0135351858569542,-1.7521080513770089,2.962248571375908,1.976803336855692,0.5285945069012038,6.15,0.0,0.113,0.086,0
119,1745187267.936648,1.0,0.0,-5.0,-0.0040142377838492,-0.0040915226563811,-0.0023413456510752,0.0194504167884588,-0.0020741913467645,-9.716686248779297,0.0056762681527468,0.0135832007777782,-1.7513216710902604,3.4618020840502863,1.6865628859803374,0.5885553380397078,6.15,0.0,0.113,0.086,0
119,1745187277.9621308,2.0,0.0,-5.0,0.0014503637794405,-0.0017709668027237,-0.0030512877274304,0.0328738689422607,-0.0349460765719413,-9.749005317687988,0.0055980209867369,0.0136168597687867,-1.750716564278563,2.995291730067368,1.6103263922675697,0.5988016569587141,6.15,0.0,0.113,0.086,0
119,1745187288.0324306,3.0,0.0,-5.0,-0.0027453156653791,0.0014444591943174,-0.0022804467007517,-0.0264924503862857,0.0351461842656135,-9.825615882873535,0.0058711276044428,0.0134804220847684,-1.7501056584008172,3.287205939365428,2.131724448221931,0.5076822172437684,6.15,0.0,0.113,0.086,0
119,1745187298.9686573,4.0,0.0,-5.0,-0.0005068561877124,-0.0005961928982287,-0.0019675637595355,0.0330169424414634,-0.0499077625572681,-9.821444511413574,0.0059499388983156,0.0138565199461946,-1.749243796360445,2.5663270659101127,2.2886025443702254,0.4784718819399686,6.15,0.0,0.113,0.086,0
119,1745187308.995236,5.0,0.0,-5.0,-0.0012001332361251,-0.0031338916160166,-0.0005543502047657,0.043262030929327,0.0584271140396595,-9.86539077758789,0.0058212475621958,0.0134130898960823,-1.7489146238442743,2.821819082450901,1.9979192360603164,0.4340103296413579,6.15,0.0,0.113,0.086,0
119,1745187319.0201013,6.0,0.0,-5.0,-0.0021132621914148,0.0026997542008757,-0.0004909734707325,-0.03265231102705,0.0208330247551202,-9.749187469482422,0.005761976004758,0.0134104454770467,-1.7487638667506589,2.836211646539528,2.315368452545682,0.4364394248025143,6.15,0.0,0.113,0.086,0
119,1745187330.0045755,7.0,0.0,-5.0,0.0036034525837749,-7.293131784535944e-05,0.0042814710177481,0.0265410356223583,0.0027848831377923,-9.749780654907228,0.005952071660115,0.013931657188236,-1.7480733382904765,2.7397896155117456,2.3703207673662474,0.4004543575403453,6.15,0.0,0.113,0.086,0
119,1745187340.0301094,10.317237903362091,1.1367786400511757,-5.0,-0.0037245501298457,-0.0004560733796097,-0.0011111403582617,-0.0278618857264518,0.055187664926052,-9.839600563049316,0.0059734521308531,0.0135275328199385,-1.7474680191812215,3.387207425396702,2.0424873467759097,0.4098454980326954,6.15,0.0,0.113,0.086,0
119,1745187350.0559323,12.164300495256748,2.910487977391724,-5.0,0.0006725825369358,0.0004140187229495,-0.0049391803331673,0.0262546222656965,-0.0964197367429733,-9.774911880493164,0.0060858069390825,0.0138269796809693,-1.7472563867590334,3.3930927201045344,1.5250777945766614,0.4666126081975333,6.15,0.0,0.113,0.086,0
119,1745187360.9108794,10.0,0.0,-5.0,0.0013052512658759,0.0018596050795167,-0.0035816244781017,-0.0266387332230806,0.0211806911975145,-9.813834190368652,0.0058730555220169,0.0137896640356128,-1.746755124467213,2.665405470821972,2.4015412620960537,0.512594040563191,6.15,0.0,0.113,0.086,0
119,1745187370.9349034,9.0,0.0,-5.0,0.0017850880976766,0.0038034853059798,0.0012626915704458,-0.001801690319553,-0.015358030796051,-9.82261848449707,0.0057608671504088,0.013795687476152,-1.7462150635955624,3.2795943275828963,2.306058919786264,0.4157075922876226,6.15,0.0,0.113,0.086,0
119,1745187380.9608278,8.0,0.0,-5.0,-0.0009413740481249,-0.0042201462201774,-0.003846576437354,0.0519462749361991,-0.0754544138908386,-9.783746719360352,0.0057083595048552,0.0134886943157838,-1.7461548088075998,3.2218481708712265,1.6774013469134794,0.5044742297810471,6.15,0.0,0.113,0.086,0
119,1745187391.9104574,7.0,0.0,-5.0,-0.0013181802351027,0.0009524727938696,-0.0012904636096209,0.0095082251355052,0.0064011788927018,-9.790993690490724,0.0059773636658368,0.013691186093475,-1.7447703630782971,3.414734624688693,2.067024479170776,0.4424986054213254,6.15,0.0,0.113,0.086,0
119,1745187401.935249,6.0,0.0,-5.0,-0.0021560257300734,-0.0015834181103855,0.0011818571947515,-0.0125967720523476,0.0013967342674732,-9.827910423278809,0.0056635037332182,0.0136207292205592,-1.7441016864384675,2.606899630167657,1.9060197340992229,0.4742649596764683,6.15,0.0,0.113,0.086,0
119,1745187411.9611168,5.0,0.0,-5.0,-0.0009472662932239,5.592041270574555e-05,-0.0006776134250685,-0.0252614598721265,-0.0135651165619492,-9.789098739624023,0.0057197247776566,0.0138109612946872,-1.7436092516183528,3.148097522339375,1.5387884728059271,0.5183971064014337,6.15,0.0,0.113,0.086,0
119,1745187422.8892074,4.0,0.0,-5.0,-2.407350621069781e-05,-0.0033702419605106,0.0053961863741278,-0.0536474734544754,-0.0099730845540761,-9.770161628723145,0.0057340220680023,0.0136380310023013,-1.7434316738585407,3.472071277762129,2.18338800029534,0.5108998713103399,6.15,0.0,0.113,0.086,0
119,1745187432.9179623,3.0,0.0,-5.0,0.0003214719763491,0.003298804629594,0.0021523013710975,-0.022619592025876,0.0132340118288993,-9.847874641418455,0.0059895573017004,0.0138519969447051,-1.7429799136611004,3.0513473005881835,1.8933453310569544,0.4690147274106246,6.15,0.0,0.113,0.086,0
119,1745187442.9483044,2.0,0.0,-5.0,-0.005387142766267,0.0013836089055985,-2.698545722523704e-05,-0.0072937891818583,0.0457604937255382,-9.830824851989746,0.0057285915828776,0.0138687791860332,-1.742674837278789,2.60984527670822,1.6821719883938169,0.4134309095608883,6.15,0.0,0.113,0.086,0
119,1745187453.8810833,1.0,0.0,-5.0,-0.0028371319640427,0.0026508625596761,0.0031653756741434,-0.0034245660062879,-0.0402919799089431,-9.835648536682127,0.0056142804398305,0.0136307470882564,-1.7416996525109434,3.1984208465268,2.1786685070821616,0.5166076364784072,6.15,0.0,0.113,0.086,0
119,1745187463.90474,0.0,0.0,-5.0,0.0021988374646753,0.0005678065354004,-0.007208511698991,0.0623195581138134,0.035221055150032,-9.684502601623535,0.0057580590716268,0.0136057425548689,-1.741316187880274,2.794454082251228,2.238400167479366,0.4382135546190366,6.15,0.0,0.113,0.086,0
120,1745187475.0235546,0.0,0.0,-5.0,0.0007137578795664,0.0031761082354933,-0.0002108408079948,0.0259758494794368,0.0891455635428428,-9.758790016174316,0.0058265583493334,0.0135585307693145,-1.7412121079569045,2.742892396973338,2.410791162412137,0.5919254895140976,9.3,0.16,0.139,0.052,0
120,1745187485.9353,1.0,0.0,-5.0,-0.0027357493527233,-0.0036801830865442,0.0044321669265627,-0.0831577032804489,0.0933980941772461,-9.84584617614746,0.0057531887088699,0.0135653533790526,-1.7408006238930325,2.6455371513920767,2.2048640462317377,0.5850514982399782,9.3,0.16,0.139,0.052,0
120,1745187495.9644778,2.0,0.0,-5.0,-0.0036241626366972,0.0014272627886384,-0.0004565928538795,0.0011261594481766,-0.0122060636058449,-9.761917114257812,0.0058034232496035,0.0137738769952517,-1.7394392250470132,2.5098997427177427,1.5157623074306068,0.4234144535701462,9.3,0.16,0.139,0.052,0
120,1745187505.9913316,3.0,0.0,-5.0,0.0036949825007468,0.0025447593070566,-0.0006230190629139,-0.0106526520103216,0.0473677329719066,-9.789779663085938,0.0058275279653137,0.0140127171180816,-1.7386146844688566,2.869085812291201,1.9415991091088176,0.4906381715215456,9.3,0.16,0.139,0.052,0
120,1745187516.922397,4.0,0.0,-5.0,-0.0028414961416274,0.0004517714842222,-0.0004443619109224,-0.0194944962859153,0.0266701057553291,-9.70584201812744,0.0057815453338944,0.013602199729921,-1.739002114085937,2.935065824082323,1.7619669987408997,0.5143116851655211,9.3,0.16,0.139,0.052,0
120,1745187526.9475548,5.0,0.0,-5.0,-0.0020795608870685,-0.0037056559231132,0.0026291711255908,-0.0027682897634804,-0.0740117877721786,-9.774468421936035,0.0056596853981376,0.0135632195465018,-1.7388723986936232,3.094290214624177,1.5516116210022013,0.4621055578150607,9.3,0.16,0.139,0.052,0
120,1745187536.9722135,6.0,0.0,-5.0,-0.0039373207837343,-0.0007406813092529,0.0020610447973012,0.0624082721769809,-0.030911024659872,-9.812000274658203,0.0054456534806112,0.0135939800511495,-1.7383276234652745,2.646241944611451,2.132394362757181,0.5413528171142488,9.3,0.16,0.139,0.052,0
120,1745187547.9077995,9.2781089873934,2.329414676321027,-5.0,-0.0041482630185782,0.0018213149160146,-0.0048241205513477,-0.0574215240776538,-0.0263238437473773,-9.73367977142334,0.0058590306882999,0.0136650905511211,-1.7374048385776808,3.14357057196224,1.5502283690915322,0.5804324415611898,9.3,0.16,0.139,0.052,0
120,1745187557.9378896,10.545329952729183,1.6346956440551192,-5.0,-0.0018370531033724,0.0012572025880217,0.0047419411130249,-0.095669575035572,0.0033780289813876,-9.879298210144045,0.0059130019027019,0.0133931356065239,-1.736992638288358,3.0420870548979853,1.6101563160977572,0.5727034836989517,9.3,0.16,0.139,0.052,0
120,1745187567.9635403,13.22976313448276,1.3294424448718116,-5.0,-0.0017157301772385,-0.0015406046295538,-0.0024608101230114,0.0044094347395002,-0.0165061168372631,-9.818355560302734,0.0057591634446752,0.0135278629566613,-1.7359456681813004,2.5662482125155712,1.6978061794985544,0.4510413888314272,9.3,0.16,0.139,0.052,0
120,1745187578.8612182,10.0,0.0,-5.0,-0.0038829429540783,0.0009734146879054,-7.696848479099572e-05,0.0134420087561011,0.0293122436851263,-9.872833251953123,0.0057954277900264,0.0135499768123861,-1.7351183588925465,3.2354484982413068,2.215823735977046,0.5589576342219449,9.3,0.16,0.139,0.052,0
120,1745187588.886763,9.0,0.0,-5.0,-0.0013945987448096,-9.787096496438608e-05,0.0012225438840687,-0.0410416908562183,0.0325020588934421,-9.83967399597168,0.0057976212214997,0.0135272310773097,-1.7347603961537397,3.1777247048367347,2.079743456921917,0.411603456856712,9.3,0.16,0.139,0.052,0
120,1745187598.9127584,8.0,0.0,-5.0,0.0023932356853038,0.000375699280994,-0.003115278435871,-0.0023413172457367,-0.0205412227660417,-9.749346733093262,0.0057109864567472,0.0139126325165588,-1.734084986008918,2.555339971226505,1.5417459265321392,0.5918378598544547,9.3,0.16,0.139,0.052,0
120,1745187609.8158684,7.0,0.0,-5.0,0.0039045910816639,-0.0002802534145303,-0.0010847595985978,-0.0111284935846924,0.0183924473822116,-9.81707763671875,0.005802629279843,0.0142184888758474,-1.7332180531102688,2.889276675577053,1.858487862299293,0.5274355905458519,9.3,0.16,0.139,0.052,0
120,1745187619.841525,6.0,0.0,-5.0,-0.0023446741979569,-0.002699754666537,-0.000150765365106,0.0198428407311439,-0.0122673399746418,-9.759038925170898,0.0056719428657678,0.0134376780312157,-1.7328291951738384,2.842999824767356,1.8919897859232488,0.441307231113546,9.3,0.16,0.139,0.052,0
120,1745187629.8668308,5.0,0.0,-5.0,0.0003876416303683,-0.0007819509482942,-0.004307638388127,0.0015719950897619,-0.046329203993082,-9.852862358093262,0.0057164490854567,0.0134631565505195,-1.732081566777993,2.5329711360607785,2.1012324618908638,0.4414358070204868,9.3,0.16,0.139,0.052,0
120,1745187640.814807,4.0,0.0,-5.0,-0.003237664932385,0.0002418411459075,-0.0021406456362456,-0.0297839660197496,-0.0293864719569683,-9.81919288635254,0.0057130483564538,0.0135048677134777,-1.731226476563652,2.501487601149281,1.8062775024334168,0.4537302646115397,9.3,0.16,0.139,0.052,0
120,1745187650.839399,3.0,0.0,-5.0,-0.0012520854361355,-0.0004264815361239,-0.0025719746481627,0.0320020355284214,0.0097946962341666,-9.859562873840332,0.0056053368145963,0.0136008443686829,-1.7299550472028151,3.0477353566023555,1.8614911361144344,0.527785487768189,9.3,0.16,0.139,0.052,0
120,1745187660.8647451,2.0,0.0,-5.0,-0.0004225649754516,-0.0020509946625679,-0.0012953011319041,-0.0434049218893051,0.0346151404082775,-9.73065948486328,0.0057538689606398,0.0134803871368492,-1.72950939484555,2.932492247197032,1.7944122769504711,0.5665656884999424,9.3,0.16,0.139,0.052,0
120,1745187671.8280437,1.0,0.0,-5.0,0.0013851253315806,0.0026559608522802,-0.0014784148661419,0.0109571488574147,0.0479371510446071,-9.734865188598633,0.0058041402677336,0.0135108196786237,-1.7297622010837603,3.030768857725864,1.5271899418843888,0.4825420277137068,9.3,0.16,0.139,0.052,0
120,1745187681.8534305,0.0,0.0,-5.0,0.0014651828678324,-0.0014745822409167,0.0020443298853933,-0.1001607403159141,0.0318823233246803,-9.833229064941406,0.0057106552489706,0.0138063997887901,-1.72856158196649,3.083689305553064,2.3441750478743426,0.547558381400781,9.3,0.16,0.139,0.052,0
121,1745187697.5386734,0.0,0.0,-5.0,-0.0040544080547988,0.0003288041334599,-0.0106991380453109,-0.0330760888755321,0.0342005752027034,-9.857165336608888,0.0058710735201615,0.013501315891532,-1.727249868223636,2.934406838749932,2.4985475787762024,0.5241337584570127,8.22,0.16,0.142,0.074,0
121,1745187708.5109966,1.0,0.0,-5.0,-0.0030730436556041,-0.0034610868897289,-0.0025075478479266,-0.0184074491262435,-0.0459200255572795,-9.80718231201172,0.005671897578178,0.0135683367809826,-1.7264895507721965,2.916139224606905,1.70675120652838,0.4159849345497258,8.22,0.16,0.142,0.074,0
121,1745187718.5822585,2.0,0.0,-5.0,0.0019650489557534,-0.0009861983126029,-0.0037062449846416,-0.0643270388245582,0.0495929196476936,-9.9117431640625,0.0056487635939431,0.0136633840422643,-1.7258561747707166,2.717260993225948,2.3795392771697506,0.4096038230270805,8.22,0.16,0.142,0.074,0
121,1745187728.6600049,3.0,0.0,-5.0,-0.0022275664377957,0.0009369006729684,-0.0025223991833627,0.0558582879602909,-0.0487187877297401,-9.83682632446289,0.0058588128860101,0.0134735518521185,-1.7251447191894154,3.207606681516075,1.852820012267516,0.5325902535617235,8.22,0.16,0.142,0.074,0
121,1745187739.6460505,4.0,0.0,-5.0,-0.0010220105759799,-0.0015202281065285,-0.0016882499912753,-0.0145617835223674,0.0282838642597198,-9.817030906677246,0.0059402957347764,0.0138381868476665,-1.72434356729447,2.9500123524948902,1.837865227544527,0.5155890147668845,8.22,0.16,0.142,0.074,0
121,1745187749.716069,5.0,0.0,-5.0,-0.0014914822531864,-0.0036534829996526,-0.0001623910211492,0.0490216016769409,0.0490766465663909,-9.795801162719728,0.0058402468888471,0.013370100994565,-1.7240263413015355,3.17349130370776,1.590605050246524,0.4834945556766887,8.22,0.16,0.142,0.074,0
121,1745187759.7925951,6.0,0.0,-5.0,-0.0022593119647353,0.0024580196477472,-0.0025136205367743,-0.0111649632453918,-0.0806829184293747,-9.814671516418455,0.0057287996737451,0.0133756837076504,-1.7239677673129925,3.050563320035397,1.8469622021174612,0.4827720846787323,8.22,0.16,0.142,0.074,0
121,1745187770.775688,7.0,0.0,-5.0,0.0021468310151249,0.0010953368619084,0.0042481981217861,-0.0567602440714836,-0.0028635875787585,-9.787538528442385,0.0059644457140338,0.013877704566233,-1.7232291534032784,2.690100756647439,2.275090600402963,0.5400363989585855,8.22,0.16,0.142,0.074,0
121,1745187780.8573503,8.0,0.0,-5.0,-0.0039872140623629,0.0014907626900821,-0.0028434197884052,0.0990211516618728,0.0183665249496698,-9.790749549865724,0.0059662862821624,0.0136148673806337,-1.722491532584381,2.9440290562618543,1.9211871684316555,0.4580599709793929,8.22,0.16,0.142,0.074,0
121,1745187790.9331126,9.0,0.0,-5.0,0.0035609430633485,0.0017892490141093,-0.0034218023065477,-0.0070552923716604,-0.0481600798666477,-9.872516632080078,0.006062579627991,0.0137834769229609,-1.722520618162731,3.4901905547910075,2.337907652487233,0.5496576874424269,8.22,0.16,0.142,0.074,0
121,1745187801.9109182,12.583608778166022,1.022577450883314,-5.0,0.0002625210327096,0.0004493916931096,-0.0015800715191289,0.0521814189851284,0.0542958490550518,-9.757511138916016,0.0058200924317217,0.013771477090327,-1.7219556072972209,2.5602823577165434,2.246714329132846,0.4685213986727954,8.22,0.16,0.142,0.074,0
121,1745187811.9896903,12.715547207205166,1.73028984121264,-5.0,0.0048031113110482,0.0016074698651209,0.0030265301465988,-0.0479502789676189,-0.0064547616057097,-9.803386688232422,0.0057147456149637,0.0137855170243405,-1.7213452509455156,2.9953507581182235,2.2420885142925377,0.4995698328375116,8.22,0.16,0.142,0.074,0
121,1745187822.0681205,8.0,0.0,-5.0,-0.0039658471941947,-0.0009031616500578,-0.0023100641556084,-0.0475822910666465,-0.0200256761163473,-9.791308403015137,0.005763734804122,0.0134494389144091,-1.721380083489016,3.333736340795346,1.9862384921609348,0.5972908202588776,8.22,0.16,0.142,0.074,0
121,1745187833.0571237,7.0,0.0,-5.0,-0.0002916035882662,0.0042069791816174,-0.0016250646440312,0.0032170815393328,0.0235855635255575,-9.800662994384766,0.0059101963876808,0.0137469044982376,-1.7199020928648003,2.9870897369114866,2.1992948262469545,0.4317761487535868,8.22,0.16,0.142,0.074,0
121,1745187843.132027,6.0,0.0,-5.0,0.0001248855405719,-0.0020607579499483,0.0004222047282382,-0.0434183999896049,0.0292787048965692,-9.878456115722656,0.0057333810070757,0.0135588762511427,-1.7192322415232208,2.70277782801304,1.8445524702197296,0.4853993395792561,8.22,0.16,0.142,0.074,0
121,1745187853.1978116,5.0,0.0,-5.0,0.0007451500277966,8.478185191052034e-05,-0.0036346055567264,0.1080387160181999,-0.0103192795068025,-9.791131019592283,0.0055924286947592,0.0138549484310192,-1.7187183912512147,2.767110576776422,2.016563643285493,0.5002390456595253,8.22,0.16,0.142,0.074,0
121,1745187864.1406643,4.0,0.0,-5.0,-0.0016209906898438,-0.0005935493973083,0.0040842900052666,-0.0057376311160624,-0.0574669800698757,-9.741708755493164,0.0057683632012804,0.0136077645063433,-1.7186445644748367,3.364626738451993,2.431467255036149,0.5349992038526449,8.22,0.16,0.142,0.074,0
121,1745187874.2163386,3.0,0.0,-5.0,0.0012952721444889,0.0041690883226692,-0.0025949557311832,0.0482914708554744,-0.0237863678485155,-9.842605590820312,0.0060897024784817,0.0137844954163027,-1.7181708229850918,2.7255978770696587,1.954918059433984,0.5172603059723365,8.22,0.16,0.142,0.074,0
121,1745187884.2822318,2.0,0.0,-5.0,-0.0005815770709887,-0.0009529382223263,0.0014703394845128,0.015585676766932,0.025399824604392,-9.770037651062012,0.0056761906272599,0.0140440486789244,-1.717805298150469,3.338000346519989,1.6013207777420644,0.4203580491533265,8.22,0.16,0.142,0.074,0
121,1745187895.219824,1.0,0.0,-5.0,-0.0045627932995557,-0.0016047273529693,0.0025082926731556,-0.0402909107506275,0.0653089359402656,-9.833064079284668,0.0055103913074095,0.0136841372154525,-1.71684586926155,3.357956318310144,2.0719994189211484,0.5149189538698105,8.22,0.16,0.142,0.074,0
121,1745187905.2876976,0.0,0.0,-5.0,0.0032267912756651,0.001283222110942,-0.0072754751890897,-0.0235322639346122,-0.0671977177262306,-9.797154426574709,0.0057998958069498,0.0135432642408044,-1.716534808333699,2.6331139231096508,2.429714308471376,0.5116255339434689,8.22,0.16,0.142,0.074,0
122,1745187926.9813304,0.0,0.0,-5.0,-0.0019134468166157,-0.0018920282600447,0.0037371811922639,-0.0125072924420237,0.0063621727749705,-9.838884353637695,0.0058083712511531,0.013626428095991,-1.716043247625884,3.2619137541137,2.3791393916050056,0.5103690522340494,8.57,0.18,0.051,0.003,0
122,1745187937.0605972,1.0,0.0,-5.0,-0.0030234535224735,0.0002835778868757,-0.0005211240495555,-0.0493937581777572,0.0467509478330612,-9.771769523620604,0.0056888959235585,0.0138381730162107,-1.7145186280731992,3.492688774294132,2.0154918419105767,0.5068570508015402,8.57,0.18,0.051,0.003,0
122,1745187947.1258726,2.0,0.0,-5.0,0.0020121007692068,0.0070308707654476,-6.644434324698523e-05,0.0225147251039743,0.0006430904031731,-9.806683540344238,0.0057781166423734,0.0138676790528148,-1.7137691082035105,2.702218825032798,1.548218969515338,0.4637940822203405,8.57,0.18,0.051,0.003,0
122,1745187958.1193922,3.0,0.0,-5.0,-0.0003914802218787,0.0020168661139905,0.0003863949968945,0.0550464354455471,-0.0076204570941627,-9.81983757019043,0.005896718993165,0.0135599753470281,-1.714226215076669,2.825005181076317,2.4673409150610497,0.5770431149842115,8.57,0.18,0.051,0.003,0
122,1745187968.1890235,4.0,0.0,-5.0,-0.0009721884271129,-0.0053619951941072,0.0031980120111256,0.0447790473699569,-0.0136528182774782,-9.794419288635254,0.0058089937874371,0.0135687401119346,-1.7143678860207616,2.8131210347531925,2.4208911339938064,0.5675610687195443,8.57,0.18,0.051,0.003,0
122,1745187978.2611382,5.0,0.0,-5.0,-0.0065649659372866,-0.0021034507080912,0.005791618488729,0.0164810884743928,-0.0143945692107081,-9.735688209533691,0.0054289883215051,0.0135321229196225,-1.713724949953428,3.175841804234859,2.001710097625896,0.503852054130451,8.57,0.18,0.051,0.003,0
122,1745187989.258365,6.0,0.0,-5.0,-0.0017114381771534,0.0016867500962689,-0.0046189306303858,-0.0293057337403297,0.0044798939488828,-9.809548377990724,0.0059420302311222,0.0138591031081254,-1.7129191656585057,2.5660831062119405,2.1060993187325474,0.5886082501243568,8.57,0.18,0.051,0.003,0
122,1745187999.334069,7.0,0.0,-5.0,-0.0008873792248778,0.0011062911944463,0.0007952970336191,0.0316512919962406,-0.0729484111070633,-9.78791332244873,0.0058419832660338,0.0134942285990721,-1.7122198187203572,3.017736249289083,2.0424649725834034,0.4611160519583195,8.57,0.18,0.051,0.003,0
122,1745188009.403782,8.0,0.0,-5.0,0.0007998995715752,0.0007755699916742,-0.0027893595397472,0.0113649163395166,-0.0284157432615757,-9.78273868560791,0.0059098459123825,0.0135806987465432,-1.711143816344581,3.133595785079303,1.8160615591178595,0.4284555090084309,8.57,0.18,0.051,0.003,0
122,1745188020.3787684,9.0,0.0,-5.0,-0.0032658169511705,0.0009499008883722,-0.0008263587369583,-0.0258755907416343,-0.0379010774195194,-9.80548858642578,0.0057708506720158,0.0135418638399116,-1.7103276929361169,2.974754630491238,2.4984390060135904,0.4308411930976774,8.57,0.18,0.051,0.003,0
122,1745188030.451833,10.0,0.0,-5.0,-0.0034251261968165,0.0030088839121162,-0.000422738114139,-0.0297273956239223,0.0294161587953567,-9.770426750183104,0.0056174091888918,0.0136306818116204,-1.7099115361801127,2.880536371791788,2.284630010283521,0.5345146041746052,8.57,0.18,0.051,0.003,0
122,1745188040.532869,9.0,0.0,-5.0,0.0014825020916759,-0.0037802872247993,-0.0045734900049865,0.0101374071091413,0.0039243497885763,-9.805724143981934,0.0057686158081372,0.0138958834844795,-1.7091871212240315,2.8128710157846646,2.359948783458288,0.5784303016403151,8.57,0.18,0.051,0.003,0
122,1745188051.5009372,8.0,0.0,-5.0,0.004006530623883,0.002456598682329,-0.0020868831779807,0.0273146592080593,-0.0086991125717759,-9.835563659667969,0.0057324274938389,0.0140862069694776,-1.7083493381915684,3.1527218470777445,2.003671652213312,0.5205327509694727,8.57,0.18,0.051,0.003,0
122,1745188061.5783672,7.0,0.0,-5.0,-0.0038908817805349,0.0015075859846547,-0.0009390037157572,0.0513434149324893,0.0520114116370677,-9.840897560119627,0.0056661186065848,0.0134086235972581,-1.7081103872068275,3.161144586863351,2.0965066706864754,0.4506906446684565,8.57,0.18,0.051,0.003,0
122,1745188071.6519449,10.209686756622215,2.664766057764802,-5.0,-0.0054332395084202,-0.0028499239124357,-0.0031771913636475,0.0277018062770366,0.0498323142528533,-9.82066249847412,0.0057847425080194,0.013485570181407,-1.7071840308191888,2.9937813509932294,1.7191314748521087,0.5152088054606524,8.57,0.18,0.051,0.003,0
122,1745188081.6559763,8.41053017149887,1.372406299381513,-5.0,-0.0025209719315171,0.0007231883937492,-0.00172750512138,0.0235077943652868,0.0609072670340538,-9.810430526733398,0.0056745187840959,0.0135453046768343,-1.7062388653864695,3.287606856070048,2.083914483257421,0.4555312374320019,8.57,0.18,0.051,0.003,0
122,1745188091.7352595,7.556061738877402,1.313021303299628,-5.0,-0.0020415752660483,-0.0033244679216295,-0.002816493390128,-0.0329583659768104,-0.015700627118349,-9.863385200500488,0.0055866075852605,0.0135786155158372,-1.7049821015065791,2.7973743993606512,2.1422180501017607,0.5486929389654712,8.57,0.18,0.051,0.003,0
122,1745188101.8045406,3.0,0.0,-5.0,0.0005370180006138,-0.0007258100667968,-0.0021519816946238,0.0494641028344631,0.0006866126786917,-9.826866149902344,0.0058135474718991,0.0135215338650125,-1.7044927111916717,2.747731733578494,2.147654515929486,0.5678619886825742,8.57,0.18,0.051,0.003,0
122,1745188112.756249,2.0,0.0,-5.0,-0.0033572851680219,0.0028161748778074,-0.0016119444044306,0.0332202389836311,-0.01705913990736,-9.835853576660156,0.0057439130551943,0.0134539654032419,-1.704909731991859,2.578464962533519,1.752256637622045,0.4313018170012059,8.57,0.18,0.051,0.003,0
122,1745188122.830094,1.0,0.0,-5.0,0.0015001330757513,-0.000673140224535,0.0010581727838143,-0.0445166230201721,-0.0221594255417585,-9.80620002746582,0.0056884334027316,0.0138608326641162,-1.7035888551193203,2.5818228775033174,1.702938656208679,0.5726358206338906,8.57,0.18,0.051,0.003,0
122,1745188132.901017,0.0,0.0,-5.0,0.0018666301621124,0.0005063731805421,-0.0023450332228094,-0.0164347290992736,-0.0243541654199361,-9.832123756408691,0.0056837704445057,0.0135915362809361,-1.7032491037978683,2.9106619141640957,1.509349709843914,0.4896094965424979,8.57,0.18,0.051,0.003,0
123,1745188179.1001556,0.0,0.0,-5.0,0.0022268409375101,8.627983334008604e-06,-0.0042600985616445,0.0035984888672828,-0.0281365867704153,-9.815755844116213,0.0056271627157865,0.0136735468244368,-1.700360007239989,3.1312691271455315,2.445310439793277,0.44315612502786,4.13,0.1,0.072,0.108,0
123,1745188189.128427,1.0,0.0,-5.0,-0.0019747829064726,0.0010687561007216,-0.0020133596844971,0.0339969918131828,-0.0143161881715059,-9.869596481323242,0.0058540905282155,0.0134806440363762,-1.6996122692045053,3.2770257201993536,2.447495293478523,0.5379677415920983,4.13,0.1,0.072,0.108,0
123,1745188199.1557376,2.0,0.0,-5.0,0.0021754461340606,-0.0013210929464548,0.0024815034121274,-0.042433425784111,-0.0173638090491294,-9.80971622467041,0.0058265633175043,0.0137836351712624,-1.6989907281841448,3.05906008905725,2.398660827330789,0.5468323924310597,4.13,0.1,0.072,0.108,0
123,1745188210.1192706,3.0,0.0,-5.0,-0.0018049491336569,-0.0033881985582411,7.250446651596576e-05,0.0310220997780561,0.0327670946717262,-9.784196853637695,0.0058532418372745,0.0133907142455211,-1.6984508384138313,2.504893220574048,2.2775401396456765,0.4928268355826029,4.13,0.1,0.072,0.108,0
123,1745188220.1443996,4.0,0.0,-5.0,-0.00252306018956,0.0023969479370862,-0.0006852459046058,-0.032316368073225,-0.0185412466526031,-9.801984786987305,0.005737955288662,0.0133892049003045,-1.6984703640060996,2.547092847786904,2.22186137169592,0.5897989811355828,4.13,0.1,0.072,0.108,0
123,1745188230.1682303,5.0,0.0,-5.0,-0.0001610692561371,-0.0031558801420032,-0.0014043321134522,-0.0279340557754039,-0.001390062039718,-9.80035400390625,0.0058867377905668,0.0139753227684045,-1.697947751891475,3.1566328078993005,1.6264955752875343,0.410747978055842,4.13,0.1,0.072,0.108,0
123,1745188241.1451397,6.0,0.0,-5.0,-0.0031420465093106,2.291076270921621e-05,-0.0010523896198719,-0.031909879297018,0.0697466433048248,-9.828783988952637,0.005963653635168,0.013513087270401,-1.6970824878520194,3.324359715251036,1.5815051226601833,0.5723467943059586,4.13,0.1,0.072,0.108,0
123,1745188251.172319,7.0,0.0,-5.0,0.0022437407169491,0.0012131973635405,-0.0032141127157956,0.0844521671533584,-0.0340819768607616,-9.827720642089844,0.006102649386209,0.0138384990428341,-1.6970473280795408,3.032097233359271,2.254517376143408,0.436551780041282,4.13,0.1,0.072,0.108,0
123,1745188261.20024,8.0,0.0,-5.0,-0.0007445121300406,-0.0012054532999172,-0.0041879010386765,-0.0247734785079956,-0.0131524680182337,-9.76842975616455,0.0058030308617622,0.0136582335384203,-1.6966743943948992,2.8735808589698317,1.9136531123760587,0.4428321355246695,4.13,0.1,0.072,0.108,0
123,1745188272.1103208,9.0,0.0,-5.0,0.0018919875146821,0.004867389332503,0.0024970266968011,0.0217495579272508,-0.0774703547358512,-9.846647262573242,0.0057495141979519,0.0138229112031684,-1.696050283766966,2.624996341457202,2.412525900068056,0.490500234339371,4.13,0.1,0.072,0.108,0
123,1745188282.1343937,10.0,0.0,-5.0,-0.0020053023472428,-0.0042496481910347,-0.0030662030912935,-0.0020662501920014,-0.0536106638610363,-9.761520385742188,0.0057233289265961,0.0134634431146453,-1.6961713661769284,2.835696832476218,2.030805467123571,0.4264147532789328,4.13,0.1,0.072,0.108,0
123,1745188292.161538,13.17824238399556,2.60701423015628,-5.0,0.0031321728602051,-0.0005337740294635,-0.0016186264110729,-0.0384131595492363,-0.0417552515864372,-9.788140296936035,0.0057672721101549,0.0139042197836602,-1.6946544151392908,2.8856109208185137,2.2536921248992234,0.4061600741937799,4.13,0.1,0.072,0.108,0
123,1745188303.112839,8.0,0.0,-5.0,-0.002598391380161,-0.0017310517141595,0.0022321513388305,0.0158376917243003,-0.0232009571045637,-9.815193176269531,0.0056506539969049,0.0136143564410402,-1.693750098304375,2.794630052709015,1.6461289515788664,0.4626903693057684,4.13,0.1,0.072,0.108,0
123,1745188313.139528,7.0,0.0,-5.0,-0.0004023449146188,0.0001522901584394,-0.0012478723656386,-0.0470099039375782,-0.0690495744347572,-9.769891738891602,0.0057137993891176,0.0138428576608354,-1.6932648898109235,2.525009979253785,2.477345964249573,0.4760218912614172,4.13,0.1,0.072,0.108,0
123,1745188323.165598,6.0,0.0,-5.0,0.0033423048444092,0.0053106849081814,0.0034796660766005,-0.0136769348755478,0.0210369173437356,-9.76220989227295,0.0058190367883798,0.0137762049704576,-1.6930454082386168,2.817827592539483,1.8415001990627733,0.4033756371608525,4.13,0.1,0.072,0.108,0
123,1745188334.0991824,5.0,0.0,-5.0,-0.0001948745339177,0.0036402849946171,0.000888705428224,-0.0027510656509548,0.004804503172636,-9.779394149780272,0.0059961382427229,0.0138076423970942,-1.692851174755729,3.0180260301508843,2.0317774769566785,0.5517074847347064,4.13,0.1,0.072,0.108,0
123,1745188344.1244152,4.0,0.0,-5.0,-0.0034997530747205,0.0018760245293378,0.0003927800862584,0.0527380108833313,0.0599199682474136,-9.776703834533691,0.005734202586351,0.0139516569087295,-1.6925191235704704,2.8772782591912875,1.5394796364457242,0.5618964303834718,4.13,0.1,0.072,0.108,0
123,1745188354.1506388,3.0,0.0,-5.0,0.0004693586088251,-0.0005699097528122,-0.0001556231291033,-0.0308804847300052,-0.0754057168960571,-9.851985931396484,0.0055821866502742,0.0137109979307529,-1.6916598460219492,3.3179436735447605,2.117725285011437,0.4404475943290216,4.13,0.1,0.072,0.108,0
123,1745188365.0777955,2.0,0.0,-5.0,0.0032280124723911,-0.0005843684193678,-0.009441303089261,0.0402484685182571,-0.0185467954725027,-9.784213066101074,0.0057490124217633,0.0136540597495181,-1.6912056107593376,2.7579705387630744,1.6930546874682668,0.4750728905922841,4.13,0.1,0.072,0.108,0
123,1745188375.1050162,1.0,0.0,-5.0,0.0029391101561486,0.0021281132940202,0.0015513785183429,-0.0259365066885948,-0.012606194242835,-9.73800563812256,0.0058803380508196,0.0136192254448584,-1.691286747813138,2.7642456313692088,2.218184901679036,0.5232573693091472,4.13,0.1,0.072,0.108,0
123,1745188385.134044,0.0,0.0,-5.0,0.0015075701521709,0.0023469179868698,0.0045375530607998,-0.0092049920931458,0.0382689647376537,-9.787530899047852,0.005679018346049,0.0136059505268054,-1.690811141631522,3.1417494639741457,1.6768527006733709,0.5996452439308816,4.13,0.1,0.072,0.108,0
124,1745188397.150735,0.0,0.0,-5.0,-0.0029571463819593,0.0006083228508941,6.116115400800481e-07,0.0709921866655349,-0.039475928992033,-9.825971603393556,0.0057654506563061,0.0137918961417831,-1.6892932184519236,2.5136502166507624,2.0506688181599797,0.4591353306209086,6.39,0.08,0.198,0.129,0
124,1745188407.1756892,1.0,0.0,-5.0,0.0029583973810076,0.0040040495805442,-0.000102440790215,0.0009344474528916,0.0536187291145324,-9.790237426757812,0.0058060390982847,0.0139675261174175,-1.6884111848595564,3.2949599634237723,2.017322929080689,0.4725882481425848,6.39,0.08,0.198,0.129,0
124,1745188417.2014036,2.0,0.0,-5.0,-0.0010864629875868,0.0001063430827343,0.0008988135959953,0.0333218239247798,-0.0005424530245363,-9.873833656311035,0.00589623568818,0.0135510686848215,-1.6891548073680962,3.4484922840970373,2.329755024108274,0.4369453226263868,6.39,0.08,0.198,0.129,0
124,1745188428.2021463,3.0,0.0,-5.0,-0.0013733898522332,-0.0055879736319184,0.001825196086429,0.0260385852307081,0.0196017567068338,-9.842382431030272,0.0056570855840996,0.0135334489567591,-1.6891309966032777,2.85628525445406,1.6800152495032663,0.4323402725503419,6.39,0.08,0.198,0.129,0
124,1745188438.228528,4.0,0.0,-5.0,-0.0040822336450219,-0.0014255887363106,0.0031774679664522,0.0458796434104442,-0.0260430425405502,-9.802433013916016,0.0054365162162903,0.0135534213198532,-1.6885731254052143,2.673386709745076,1.5088971605948358,0.5845254303699817,6.39,0.08,0.198,0.129,0
124,1745188448.2547154,5.0,0.0,-5.0,0.0004898965125903,-0.0076564420014619,-0.0012567781377583,0.0648507848381996,0.0620404072105884,-9.851760864257812,0.0056629875419633,0.0136999906782014,-1.6868729799132252,3.3851522921049746,1.7720434139339312,0.4168868908630401,6.39,0.08,0.198,0.129,0
124,1745188459.122887,6.0,0.0,-5.0,-0.001303530531004,0.0019041742198169,0.0041188951581716,-0.0468196719884872,-0.0896083712577819,-9.808316230773926,0.0059005729230009,0.0134187846527321,-1.6871252540213488,3.4686332895656173,2.3855155999391493,0.5576035745227251,6.39,0.08,0.198,0.129,0
124,1745188469.1500947,7.0,0.0,-5.0,-0.0019348768983036,-0.0013975005131214,-0.000889417133294,-0.049356859177351,-0.0112667316570878,-9.766217231750488,0.0058079642929089,0.013524120935905,-1.685814051472037,3.366953887577565,1.5044528387002185,0.5317964402769086,6.39,0.08,0.198,0.129,0
124,1745188479.1758552,8.0,0.0,-5.0,0.0023191978689283,0.001447512418963,-0.0040811537764966,0.0032239269930869,-0.0105852140113711,-9.699834823608398,0.0060411177234023,0.013575751365049,-1.6851975415053488,2.608151988117809,1.523116037241332,0.4679815388248551,6.39,0.08,0.198,0.129,0
124,1745188490.139387,9.0,0.0,-5.0,-0.0025454105343669,0.0008904549758881,0.0028715517837554,-0.0729815959930419,0.0189267043024301,-9.796627044677734,0.0057864496734667,0.0135216728121756,-1.6846179045544774,2.9218960075237943,1.939709249345526,0.5412141133999149,6.39,0.08,0.198,0.129,0
124,1745188500.162364,10.0,0.0,-5.0,0.00206697313115,-0.0008996060932986,0.000301003048662,0.0199072770774364,-0.0361781194806098,-9.74416446685791,0.0056915200260905,0.0139602754113906,-1.6839460961587132,3.273352605675516,1.768274829797061,0.5442756282167271,6.39,0.08,0.198,0.129,0
124,1745188510.1888812,9.0,0.0,-5.0,-0.000590895069763,-0.0005677926819771,0.0053421976044774,0.0295339804142713,-0.0446171090006828,-9.67430305480957,0.0058063521099955,0.014006579149027,-1.6831096003403936,3.0469669196019384,2.1081073109762407,0.4296823827486042,6.39,0.08,0.198,0.129,0
124,1745188521.1108844,8.0,0.0,-5.0,-0.001824717153795,-0.0028328285552561,0.00043301214464,-0.0353040657937526,0.0410537682473659,-9.778220176696776,0.0057024770230778,0.0134291505886727,-1.6825973734987556,3.300327325087781,1.7669223238294074,0.4996148346246893,6.39,0.08,0.198,0.129,0
124,1745188531.1353834,11.201463127042066,1.9507054358745677,-5.0,-0.001860985183157,-0.0024123347830027,-0.0043715764768421,0.0169270168989896,0.0801722109317779,-9.848566055297852,0.0057566683091904,0.0134376278764678,-1.6817776628253025,2.622259179832563,2.130751043264929,0.5715283141021684,6.39,0.08,0.198,0.129,0
124,1745188541.1606865,9.794376345252392,1.0094198004916777,-5.0,-0.0008374399039894,0.0037145775277167,-0.0003881017619278,-0.0152697954326868,-0.0241883657872676,-9.751642227172852,0.0059496418018524,0.0133399370552439,-1.6813648547719886,3.04427478784735,2.347257330546502,0.5956839202854307,6.39,0.08,0.198,0.129,0
124,1745188552.110033,8.057501025766468,2.1015933296854605,-5.0,-0.0013574759941548,-0.0015686628175899,-0.0014975881204009,0.1263068318367004,-0.1051570251584053,-9.871662139892578,0.0056029708118194,0.0135700795183923,-1.6797641418319378,2.540020423655282,2.4553447361381915,0.4432232083314157,6.39,0.08,0.198,0.129,0
124,1745188562.1371553,7.017824941639601,1.9009125972830516,-5.0,-0.0004072795272804,-0.0016093442682176,-0.0020553378853946,-0.0564915165305137,-0.0072084260173141,-9.807260513305664,0.0057831969460922,0.0134880072933701,-1.6793036555378875,2.6396463404636865,1.9162738036175644,0.4127848772808123,6.39,0.08,0.198,0.129,0
124,1745188572.163423,3.0,0.0,-5.0,0.0004504699027165,0.0023050268646329,0.0015651630237698,-0.0505433231592178,-0.0320248566567897,-9.839417457580566,0.0059638749229728,0.0137750084767623,-1.679344524722925,2.6091341188763835,2.2550728376434,0.5031493881013226,6.39,0.08,0.198,0.129,0
124,1745188583.0930212,2.0,0.0,-5.0,0.002021194435656,-0.0012018041452392,0.0015793135389685,0.0547319427132606,-0.0241340734064579,-9.834765434265137,0.0057143791814652,0.0138512638239969,-1.6783858431873424,3.4329307738320542,1.9551068905942977,0.4477708664013812,6.39,0.08,0.198,0.129,0
124,1745188593.1181068,1.0,0.0,-5.0,0.0016333966050297,-0.0002721868804655,-0.0017685752827674,-0.0040798527188599,0.0552857965230941,-9.865272521972656,0.0056820528392356,0.0136515237186126,-1.678011205475255,2.9388353906810254,1.8951719222273176,0.5580722972198682,6.39,0.08,0.198,0.129,0
124,1745188603.144722,0.0,0.0,-5.0,-0.0044615939259529,0.0002091157803079,-0.0003424641035962,0.0064316843636333,0.0649054422974586,-9.799115180969238,0.0058572146890232,0.0135018259042739,-1.6777999278895854,3.363998597072272,2.30634916446144,0.4904566906188182,6.39,0.08,0.198,0.129,0
125,1745188638.7986102,0.0,0.0,-5.0,0.0012015519896522,-0.0014606944750994,-0.0037022032774984,0.0297593660652637,0.0120019847527146,-9.892362594604492,0.0056037029996247,0.0136479152673538,-1.6752747477612036,3.1971185839215126,1.5801368453668254,0.4585147106838847,8.26,0.13,0.102,0.134,0
125,1745188648.8666315,1.0,0.0,-5.0,-0.0022159714717417,0.0014604334719479,-0.0019325213506817,0.0254609901458024,-0.0831421390175819,-9.75930118560791,0.0058617290983861,0.0135024394422507,-1.6745997347426242,3.053761673316988,2.080257867658561,0.5726670325627208,8.26,0.13,0.102,0.134,0
125,1745188658.9411318,2.0,0.0,-5.0,0.0017636357806622,-0.0011173428501933,0.0020403678063303,-0.0261900052428245,0.0010410274844616,-9.75681495666504,0.0058285784932973,0.0137878176928858,-1.6739377701666356,3.356407470566596,1.6267683301559357,0.5410688070109846,8.26,0.13,0.102,0.134,0
125,1745188669.903407,3.0,0.0,-5.0,-0.0016917189350351,-0.003632508451119,-0.0003097938315477,0.0151948565617203,-0.0060444166883826,-9.871106147766112,0.0058382492734306,0.0133724293228532,-1.6734088201351789,3.0431763486309125,1.6123938523465475,0.4098813251312644,8.26,0.13,0.102,0.134,0
125,1745188679.981962,4.0,0.0,-5.0,-0.002493605017662,0.0027307311538606,-0.0014618769055232,-0.0528714545071125,-0.0169776733964681,-9.734740257263184,0.0057313276151754,0.0133829461447869,-1.6733300711502004,2.98555396094908,1.929955723818866,0.5981079842453343,8.26,0.13,0.102,0.134,0
125,1745188690.0574746,5.0,0.0,-5.0,-0.0002955572563223,-0.0026935974601656,-0.0015382547862827,0.0602173767983913,0.0314739495515823,-9.750971794128418,0.0059264246892015,0.0139447942236348,-1.672774750706536,2.7325147007582538,2.338480452175885,0.4324658995852574,8.26,0.13,0.102,0.134,0
125,1745188701.0221946,6.0,0.0,-5.0,-0.0038499482907354,-7.675423694308847e-05,-0.0012714950134977,0.0338666811585426,-0.057244025170803,-9.774209022521973,0.0059550738950522,0.0135602234156919,-1.67193480193385,3.3386684150653463,1.6517690051531826,0.403496307332467,8.26,0.13,0.102,0.134,0
125,1745188711.099717,7.0,0.0,-5.0,0.0031618899665772,0.0018256584880873,-0.0031177955679595,-0.0026649376377463,0.0386463589966297,-9.807206153869627,0.0060611921553287,0.0138278644874789,-1.6719240945131684,2.9841360687745984,1.9698057726400893,0.4169512621845738,8.26,0.13,0.102,0.134,0
125,1745188721.1713068,8.0,0.0,-5.0,-0.001962755806744,-0.0010270796483382,-0.0046585802920162,-0.0093788625672459,0.0207149051129817,-9.81284236907959,0.0058393783557682,0.0137234478006443,-1.6714705227265114,3.1322031129017343,2.210843522231051,0.4203967126476833,8.26,0.13,0.102,0.134,0
125,1745188732.100106,9.0,0.0,-5.0,0.0035278198774904,0.0032376439776271,0.003858869196847,-0.003658686298877,-0.0042018555104732,-9.910286903381348,0.00572821532406,0.0137947217127278,-1.6708285685953106,3.4527182015357427,2.1848062316024937,0.4211183538221562,8.26,0.13,0.102,0.134,0
125,1745188742.1795197,10.0,0.0,-5.0,-0.003464781679213,-0.0030187487136572,-0.0019376320997253,0.0158177968114614,0.035109419375658,-9.817940711975098,0.0057606701861353,0.0134421762012523,-1.6708129583942466,2.849942812539055,1.6535524769342531,0.5708266675231208,8.26,0.13,0.102,0.134,0
125,1745188752.2479975,9.0,0.0,-5.0,0.0023077330552041,-0.0006411243230104,-0.0020755266305059,0.0638253763318061,-0.0433894507586956,-9.886601448059082,0.0058045278522123,0.0139384365347568,-1.6694780457119902,3.3132219051016465,1.756841633290517,0.5803981967523189,8.26,0.13,0.102,0.134,0
125,1745188762.2622142,11.74790184493768,2.1481894162813706,-5.0,0.0003473231918178,-0.0029570669867098,0.0007666479796171,0.0423910953104496,-0.0149236377328634,-9.867507934570312,0.0057189021760827,0.0136272718136321,-1.66860985188536,2.6669861681847533,2.1601068573003035,0.4129522796654359,8.26,0.13,0.102,0.134,0
125,1745188772.3313315,7.0,0.0,-5.0,0.0008252863772213,-0.0020527548622339,-0.0020880394149571,-0.0736332833766937,-0.0045482493005692,-9.70346450805664,0.0056833531710306,0.0138091807671266,-1.6681858216703749,3.1756502462891207,1.9133329037224072,0.4998336757546426,8.26,0.13,0.102,0.134,0
125,1745188782.413335,6.0,0.0,-5.0,0.0030476972460746,0.0039619207382202,0.0037011937238276,-0.0514534302055835,0.0351268090307712,-9.820463180541992,0.005851942806702,0.0137272891583112,-1.6678030034521485,3.0300553817161826,2.2838661711029777,0.4088528510481221,8.26,0.13,0.102,0.134,0
125,1745188793.390317,5.0,0.0,-5.0,0.0010771098313853,0.0020162423606961,0.0012126385699957,0.0007293977541849,0.0204566530883312,-9.765216827392578,0.0059720364341213,0.013846283678423,-1.6676044311022542,2.7025132018204534,2.1713019811306595,0.565691707175521,8.26,0.13,0.102,0.134,0
125,1745188803.4631217,4.0,0.0,-5.0,-0.0067414948716759,0.0003925672208424,-0.0003172286669723,0.022825451567769,-0.0538762770593166,-9.86214542388916,0.0057699571555482,0.0137732430290262,-1.6673972905240868,3.249743423952637,2.320494106155749,0.5167200528158504,8.26,0.13,0.102,0.134,0
125,1745188813.5315328,3.0,0.0,-5.0,6.041241067578085e-05,0.0002334376476937,-0.0017225337214767,-0.0183393433690071,-0.0061629163101315,-9.812170028686523,0.0055614191771928,0.0137328822124253,-1.666483598434898,2.8267797252772926,2.174254667353288,0.5379911070172538,8.26,0.13,0.102,0.134,0
125,1745188824.4998324,2.0,0.0,-5.0,0.0025441835168749,0.0002445398422423,-0.0066174664534628,-0.0233877636492252,0.0752435848116874,-9.859589576721191,0.0057235569640094,0.0136014817257351,-1.6659990251970824,3.2183179747897874,2.2565916974136884,0.5766052354916191,8.26,0.13,0.102,0.134,0
125,1745188834.5795512,1.0,0.0,-5.0,-0.0009455551044084,0.0024987694341689,-0.0004627959569916,-0.0522299706935882,-0.0298808552324771,-9.802607536315918,0.0059408611394424,0.0135936614280855,-1.6659560254141474,2.753433373667914,1.6822337414122794,0.5052286042252286,8.26,0.13,0.102,0.134,0
125,1745188844.6462543,0.0,0.0,-5.0,0.0009587421664036,0.0001466188114136,0.004444268066436,0.0421514473855495,0.0465180352330207,-9.840285301208496,0.0056748669086533,0.0135822600102919,-1.6654866305609484,2.723449009384153,1.7137037525380374,0.4432068080391454,8.26,0.13,0.102,0.134,0
126,1745188856.9505386,0.0,0.0,-5.0,-0.0031366844195872,0.000393406196963,-0.0005429729353636,0.0311776306480169,-0.0385617278516292,-9.815237998962402,0.0057354441595413,0.0138079275509185,-1.6640780289017962,3.036989674800081,2.002819340371769,0.485998771214145,9.53,0.16,0.013,0.133,0
126,1745188867.0277534,1.0,0.0,-5.0,0.0039261747151613,0.0058238771744072,-0.0010188784217461,-0.0226415582001209,0.0305529963225126,-9.942017555236816,0.0058528365940672,0.0139565934322114,-1.663210973830067,3.0373681771700616,2.4765960413156813,0.5066475007219834,9.53,0.16,0.013,0.133,0
126,1745188877.0966566,2.0,0.0,-5.0,-0.0005140164284966,0.0015979744493961,-0.0009621960343793,-0.0162631496787071,0.0016146025154739,-9.835929870605469,0.0059173547308046,0.0135601746302597,-1.6637745560581454,2.64486583592565,1.9080489862840693,0.5216001151170153,9.53,0.16,0.013,0.133,0
126,1745188888.060608,3.0,0.0,-5.0,-0.0013488923432305,-0.0057335514575243,0.0007402953924611,-0.0547107681632041,0.0394905470311641,-9.86489963531494,0.0056572488163243,0.0135512199338155,-1.6636982899187298,3.1060658059573063,2.4124321473315247,0.4782211086411596,9.53,0.16,0.013,0.133,0
126,1745188898.1267848,4.0,0.0,-5.0,-0.0057787508703768,-0.0014049331657588,0.0048499042168259,0.0103704091161489,0.0356415323913097,-9.76728630065918,0.0054271829167701,0.013534430528174,-1.6630877964821398,3.445515756230134,2.023382110623122,0.5266966307205316,9.53,0.16,0.013,0.133,0
126,1745188908.2073698,5.0,0.0,-5.0,0.0002002130204346,-0.0062627517618238,-0.0016872716369107,-0.0112666739150881,-0.0185795258730649,-9.80336570739746,0.0057183226758426,0.0136183531176028,-1.6617201606055922,3.3104678681435336,1.9851470090251184,0.5751894082815479,9.53,0.16,0.013,0.133,0
126,1745188919.1834972,6.0,0.0,-5.0,-0.0029609971679747,0.0017684201011434,0.0020821024663746,0.0136359669268131,0.0282156337052583,-9.77443027496338,0.0058067529275829,0.0134332753948415,-1.661700065763992,2.847301642615469,1.995585413008956,0.4461399192698099,9.53,0.16,0.013,0.133,0
126,1745188929.254428,7.0,0.0,-5.0,0.0004420343320816,-0.0013850566465407,-0.001780136139132,0.0031511476263403,0.0658991560339927,-9.746740341186523,0.0058090257842352,0.0135280061691136,-1.660581802085426,2.853908783767652,2.3562733076718465,0.4678193125677053,9.53,0.16,0.013,0.133,0
126,1745188939.3214948,8.0,0.0,-5.0,0.0032886571716517,0.001785936881788,-0.001210737391375,-0.0827554166316986,0.0253791976720094,-9.78972053527832,0.0059522406773764,0.0135725430024198,-1.6599608399477,3.319121102641137,1.9777451404338549,0.4295009992143548,9.53,0.16,0.013,0.133,0
126,1745188950.2664647,9.0,0.0,-5.0,-0.003372831037268,0.0030946449842303,-0.0003442173474468,-0.0325372330844402,0.1202312409877777,-9.811602592468262,0.005768144638402,0.0135375736560539,-1.6593528843953755,2.624861239677749,2.200297406367796,0.5622788458500958,9.53,0.16,0.013,0.133,0
126,1745188960.3422303,12.195601406181256,2.6217857609972177,-5.0,0.0033630682155489,0.0004610927426256,-0.0012985698413103,-0.0120116369798779,0.1312417984008789,-9.779013633728027,0.0056899378134949,0.0139162471550269,-1.6586558359647108,3.327934694814084,2.174306965485766,0.5843887281107115,9.53,0.16,0.013,0.133,0
126,1745188970.4156592,9.0,0.0,-5.0,-0.0013223519781604,-0.0002294050937052,0.0046502444893121,-0.0102521199733018,0.0467532128095626,-9.871655464172363,0.0058035872961191,0.0140182090364409,-1.6579617260560342,2.5321303433008078,1.921114667173644,0.4182041609371236,9.53,0.16,0.013,0.133,0
126,1745188981.338546,8.0,0.0,-5.0,-0.0032545451540499,-0.0022932041902095,0.0005284011713229,-0.0317658558487892,-0.0119254738092422,-9.79926872253418,0.005684537145282,0.0134124176213879,-1.6575116051604073,2.6810504672573354,1.8352879247403764,0.5723182580545658,9.53,0.16,0.013,0.133,0
126,1745188991.4124408,7.0,0.0,-5.0,-0.0031268743332475,-0.0018628040561452,-0.0042022429406642,0.0282480306923389,0.019715566188097,-9.762431144714355,0.0057306979887242,0.013459273946911,-1.6566511500140129,2.7211822950140263,1.506485996049499,0.4508608926488368,9.53,0.16,0.013,0.133,0
126,1745189001.48009,6.0,0.0,-5.0,-0.0027376068755984,0.0037776390090584,-0.0028491655830293,-0.0159618575125932,0.0103460093960165,-9.861709594726562,0.0058716207016246,0.0133665222635826,-1.6561500738918862,3.159213786727853,2.30479055866341,0.4677349943366223,9.53,0.16,0.013,0.133,0
126,1745189012.4783354,5.0,0.0,-5.0,-0.0017373710870742,-0.0023583455476909,0.0016942556248977,0.0431694015860557,0.0306617375463247,-9.742097854614258,0.0055669255555514,0.0136736796328813,-1.6544322240341574,2.571571422902906,2.0003356518355977,0.426816879860467,9.53,0.16,0.013,0.133,0
126,1745189022.546996,4.0,0.0,-5.0,-0.0031464586500078,0.0017164087621495,-0.0037297611124813,0.096562273800373,0.0438509881496429,-9.796597480773926,0.0058081705249662,0.0135294352640764,-1.6539043713227353,3.155767618332205,1.87640945233837,0.4448908043677584,9.53,0.16,0.013,0.133,0
126,1745189032.6279483,3.0,0.0,-5.0,0.0048481300473213,0.0020638364367187,-0.0004240893176756,0.1129064336419105,-0.0114424070343375,-9.781693458557127,0.0058909866759098,0.0137149735433731,-1.6540416905780182,3.2727960598353723,2.350321007287211,0.4337097333703047,9.53,0.16,0.013,0.133,0
126,1745189043.6258397,2.0,0.0,-5.0,0.0031960844062268,-0.0024002660065889,0.0025711487978696,0.0336444899439811,0.0282784085720777,-9.85061264038086,0.0056665937445063,0.0138862253687015,-1.6529890962436906,3.3368336962831973,1.7330872200212095,0.4668610621311609,9.53,0.16,0.013,0.133,0
126,1745189053.691075,1.0,0.0,-5.0,0.000380137556931,0.0013770366786047,-0.0024935405235737,0.0236192476004362,0.0485878437757492,-9.855738639831545,0.0056390784191792,0.0136724004000312,-1.6527008565436505,3.057555711329345,1.8178465889354956,0.5434423234740968,9.53,0.16,0.013,0.133,0
126,1745189063.7702937,0.0,0.0,-5.0,-0.0003853203961625,0.0038469219580292,0.0034463189076632,-0.0025434698909521,0.0892407000064849,-9.82955551147461,0.0058937029779687,0.0135288223017888,-1.6525631064781827,3.2494726664643707,1.6493092423598084,0.5111358186223444,9.53,0.16,0.013,0.133,0
127,1745189080.2424998,0.0,0.0,-5.0,-0.0001824822102207,-0.0012983988272026,-0.0023906144779175,0.0279404073953628,0.0804970785975456,-9.846151351928713,0.0058246011803834,0.0138109977425291,-1.6512904117461005,3.354851960624444,1.806626717496788,0.4558586597339811,8.81,0.19,0.166,0.07,0
127,1745189090.268165,1.0,0.0,-5.0,-0.0030363334808498,-0.0046951007097959,-0.0023115519434213,-0.0455865152180194,-0.0540787018835544,-9.811963081359863,0.0056776132102797,0.0135907956839425,-1.6504745640436391,2.918380817375819,1.919879374396031,0.404633094665655,8.81,0.19,0.166,0.07,0
127,1745189100.293894,2.0,0.0,-5.0,0.0014425165718421,-0.0017635254189372,-0.0033917273394763,-0.0362021476030349,-0.0002924406726378,-9.767852783203123,0.0055927502109771,0.0136279242428354,-1.649863239088529,3.1781165451357296,2.024582797413988,0.5884129881289623,8.81,0.19,0.166,0.07,0
127,1745189111.2098002,3.0,0.0,-5.0,-0.0013211703626438,0.00037149223499,-0.0027630752883851,-0.0065908301621675,0.0221586562693119,-9.822105407714844,0.0056334007657516,0.0137611019060496,-1.6490877267744355,2.7984577306717693,2.23137800139605,0.4582478847196527,8.81,0.19,0.166,0.07,0
127,1745189121.23523,4.0,0.0,-5.0,-0.0006560630281455,-0.0009421315626241,-0.0023271455429494,0.0183219276368618,-0.0082788467407226,-9.829978942871094,0.0059538916671405,0.0138569278160209,-1.6482958657442246,3.083324201749399,1.8054663505180863,0.4538388207054182,8.81,0.19,0.166,0.07,0
127,1745189131.2609184,5.0,0.0,-5.0,-0.0010743442689999,-0.0037362843286246,-0.0007157348445616,0.0227451287209987,-0.0063969199545681,-9.782007217407228,0.0058040440825735,0.0134262156575009,-1.647991741378668,2.5595553446274346,2.278546877258018,0.5896858083033751,8.81,0.19,0.166,0.07,0
127,1745189142.1825178,6.0,0.0,-5.0,0.0019119640346616,-0.0021741192322224,0.0006998428725637,0.0110570080578327,0.0018704698886722,-9.819119453430176,0.0055751535097197,0.0135466902358124,-1.6478411379628335,3.087761202305176,1.579667997447069,0.4197086679533934,8.81,0.19,0.166,0.07,0
127,1745189152.2068806,9.60059755479364,1.537897729443486,-5.0,0.0038291811943054,0.0003468187933322,0.0056249187327921,0.0880082696676254,0.0002223251212853,-9.819795608520508,0.0059481657806557,0.0139187172382723,-1.6472990963669114,2.824925083785886,2.128393434637565,0.5897364838383476,8.81,0.19,0.166,0.07,0
127,1745189162.2320352,8.0,0.0,-5.0,-0.0041073383763432,-0.0012726809363812,-0.0005546049214899,-0.0439390763640403,0.0203980524092912,-9.84633445739746,0.0059740155322035,0.0135294520814136,-1.6465476212985508,2.6727120610650106,1.7688897259034904,0.4309492566045524,8.81,0.19,0.166,0.07,0
127,1745189173.1590784,9.0,0.0,-5.0,0.002051874063909,-0.0009301987010985,-0.0048966677859425,-0.0071446001529693,0.0284401196986436,-9.850418090820312,0.0059717321622888,0.0136669998722022,-1.6464659812548088,3.026411115237835,1.5378118993801015,0.5804282426749892,8.81,0.19,0.166,0.07,0
127,1745189183.1849024,10.0,0.0,-5.0,0.0009325940627604,0.002149311825633,-0.0033455353695899,-0.0182362478226423,0.0128879817202687,-9.829557418823242,0.0058453573766535,0.0137909208439811,-1.6460314692106572,3.0433389864274574,2.4893151118074246,0.5830874865089886,8.81,0.19,0.166,0.07,0
127,1745189193.2097073,9.0,0.0,-5.0,0.0007347186328843,0.0045746490359306,0.0014669153606519,0.0741579309105873,0.0017158109694719,-9.740728378295898,0.005801823683114,0.0137849996654371,-1.6454808605480633,2.9504075361247213,2.4346548801953936,0.4454878656311897,8.81,0.19,0.166,0.07,0
127,1745189204.133983,8.0,0.0,-5.0,-0.003015057882294,0.0039518885314464,0.003121372545138,0.008979414589703,0.0301740523427724,-9.741788864135742,0.0056036960329866,0.013581882202189,-1.645456314123626,3.185656069659825,2.353414798069138,0.47051478400387,8.81,0.19,0.166,0.07,0
127,1745189214.1609178,7.0,0.0,-5.0,-0.0015755158383399,0.0001373607228742,-0.0010315094841644,-0.0072962925769388,0.0301501136273145,-9.83403491973877,0.0059858829700371,0.0137031725098756,-1.6439831620940226,2.533190299016262,2.387704964922503,0.5951044703662483,8.81,0.19,0.166,0.07,0
127,1745189224.185862,6.0,0.0,-5.0,-0.0018410977208986,-0.0018193224677816,0.0012100395979359,0.0190757289528846,-0.0114126624539494,-9.80116081237793,0.0056733602784569,0.0136088460083478,-1.6432599128361776,3.2240488711079944,2.311361337250609,0.4235947984933517,8.81,0.19,0.166,0.07,0
127,1745189235.0944047,5.0,0.0,-5.0,-0.0004364898486528,-0.0012761310208588,-0.0037558984477072,-0.0481816977262496,0.0382538810372352,-9.766777992248535,0.0056097021956049,0.0138381941595404,-1.6425466065960528,3.412218900582854,2.2059135215877856,0.4006935052314334,8.81,0.19,0.166,0.07,0
127,1745189245.1190815,4.0,0.0,-5.0,0.0010287339100614,-0.0029927750583738,0.0057219490408897,-0.0069216080009937,-0.07593734562397,-9.731734275817873,0.005736436174097,0.0137170611102383,-1.6427478635014994,2.553074089674045,2.0905798219839324,0.5357652025794921,8.81,0.19,0.166,0.07,0
127,1745189255.1461902,3.0,0.0,-5.0,0.0018538678996264,0.0026822071522474,0.0020598117262125,-0.0552036091685295,-0.1429473459720611,-9.787636756896973,0.0059699043399899,0.0138272943421583,-1.642280818351877,2.827803982788216,1.7501846693507528,0.4368691974281219,8.81,0.19,0.166,0.07,0
127,1745189266.0077665,2.0,0.0,-5.0,0.0032607878092676,-0.0018239134224131,0.0015539221931248,0.0371164008975029,-0.0101511320099234,-9.872210502624512,0.0057322548707524,0.0141844408841666,-1.6418216961268244,2.7111091798931675,1.5739894168807205,0.5110189036446031,8.81,0.19,0.166,0.07,0
127,1745189276.0315344,1.0,0.0,-5.0,-0.0032259307336062,0.0019718848634511,0.0033454552758485,-0.0377265624701976,-0.0044342367909848,-9.833366394042969,0.0056092654283279,0.0136215495175762,-1.6409822694351397,3.428369766730865,2.271338062091988,0.4606305869295344,8.81,0.19,0.166,0.07,0
127,1745189286.058723,0.0,0.0,-5.0,0.0020520843099802,0.0006422059959731,-0.0058272485621273,-0.0243091452866792,-0.0343991555273532,-9.79434299468994,0.0057380192599563,0.0136074424035312,-1.640645012653986,2.6123382621369315,2.0602436069192835,0.560840458267551,8.81,0.19,0.166,0.07,0
128,1745189298.334883,0.0,0.0,-5.0,-0.0024683587253093,0.002349940361455,0.0017415777547284,0.0272973217070102,-0.0160245262086391,-9.779007911682127,0.0057468072911284,0.0135409140095468,-1.640952360905205,3.1876514430841447,1.80248088922836,0.5079090864244736,4.01,0.1,0.139,0.186,0
128,1745189308.3616998,1.0,0.0,-5.0,-0.0014478005468845,-0.0039533353410661,0.0041201007552444,0.0810154229402542,0.020458647981286,-9.818446159362791,0.0057801913838824,0.0135649097592979,-1.6402711490787534,3.086513327644347,2.454666277866904,0.4381338283209022,4.01,0.1,0.139,0.186,0
128,1745189318.389154,2.0,0.0,-5.0,-0.0035612110514193,0.0002237540466012,-0.0005436975043267,-0.0217751506716012,0.01941429823637,-9.77389907836914,0.0057719262738175,0.013783424284635,-1.6386881699083349,2.7474691528932897,2.11860300585189,0.4718187764433795,4.01,0.1,0.139,0.186,0
128,1745189329.3188643,3.0,0.0,-5.0,0.0048201642930507,-0.0016467098612338,-0.0050688604824244,0.0207100417464971,0.0149985672906041,-9.766404151916504,0.0053647164990488,0.01373920823669,-1.6375222240193488,3.3810147109934285,1.6224769564988506,0.4044646584294077,4.01,0.1,0.139,0.186,0
128,1745189339.3434644,4.0,0.0,-5.0,-0.0026587832253426,-0.0005158013082109,-0.0009395453962497,0.0082342326641082,0.0432357750833034,-9.802694320678713,0.0057874978636206,0.0135945182732895,-1.63847720730266,3.3469646554471795,1.9094375818696585,0.4985266293937961,4.01,0.1,0.139,0.186,0
128,1745189349.3700402,5.0,0.0,-5.0,-0.0025420621968805,-0.0049667013809084,0.0021120286546647,-0.0277008712291717,0.0597318559885025,-9.780389785766602,0.0056641140787951,0.0135411507512558,-1.6384584026359763,2.502136845787546,2.00686262728864,0.4774222403898953,4.01,0.1,0.139,0.186,0
128,1745189360.2924285,6.0,0.0,-5.0,-0.0006777226226404,-0.0052571562118828,0.0030618137679994,-0.0696349963545799,-0.0163537394255399,-9.792348861694336,0.0054663922673002,0.0138623282467679,-1.637441762658126,3.0883706108575466,2.0965694730826616,0.4422541777812224,4.01,0.1,0.139,0.186,0
128,1745189370.31883,7.0,0.0,-5.0,-0.0035796996671706,0.0009160098852589,-0.0047569386661052,0.0319941565394401,0.0460679605603218,-9.84715461730957,0.0058564825168545,0.0137108233049565,-1.636977352837018,2.554383378661579,1.6937314580312084,0.4952966159873344,4.01,0.1,0.139,0.186,0
128,1745189380.346733,12.621078825179255,1.8605775318590037,-5.0,-0.0017140178242698,0.0022370184306055,0.0041655227541923,-0.0449183247983455,-0.0215377695858478,-9.75851821899414,0.0059005217063479,0.0134035209644159,-1.6365033149406618,3.3199482105029343,1.7388890548102034,0.5549821393880598,4.01,0.1,0.139,0.186,0
128,1745189391.2671368,13.376385380874066,2.46288652877474,-5.0,0.0011344259837642,0.0018583057681098,0.0012121740728616,0.0305519774556159,-0.0270952600985765,-9.772985458374023,0.0058382061079476,0.0135899270030749,-1.6351827005013344,2.9273029667285497,2.409710905300178,0.4893079327639754,4.01,0.1,0.139,0.186,0
128,1745189401.293228,10.0,0.0,-5.0,-0.0032796547748148,-0.0003687594726216,0.001109056174755,-0.0158453863114118,0.0290062893182039,-9.798368453979492,0.0057744219772015,0.0135491123464242,-1.6344099164549588,2.817810643042436,2.0404877855443337,0.5882063461952892,4.01,0.1,0.139,0.186,0
128,1745189411.3193192,9.0,0.0,-5.0,-0.0011785452952608,0.0008372505544684,0.0015623145736753,-0.007276592310518,0.0241791252046823,-9.806296348571776,0.0057689564423578,0.0134955698479299,-1.6341140755967978,2.8657157913892863,2.269695295910457,0.4485260165653527,4.01,0.1,0.139,0.186,0
128,1745189422.2507422,8.0,0.0,-5.0,0.0032191465143114,-0.0027108413632959,-0.0030306004919111,0.068653866648674,-0.0147198615595698,-9.817724227905272,0.0058314134544301,0.0138922963714934,-1.6332632382409062,2.73689033557864,1.811830051743848,0.5001817732369876,4.01,0.1,0.139,0.186,0
128,1745189432.2767117,7.0,0.0,-5.0,0.0035129829775542,-0.0002955693926196,-0.0023140760604292,-0.0159389805048704,0.0262772962450981,-9.857850074768066,0.0058029176689095,0.014207769478659,-1.6324199841301954,3.211211164411297,2.3899676752899306,0.572965381499684,4.01,0.1,0.139,0.186,0
128,1745189442.3008132,6.0,0.0,-5.0,-0.0017615971155464,-0.0030370976310223,0.0007638504612259,0.0876668393611908,0.0306193307042121,-9.768482208251951,0.0056716596208623,0.0134342598252044,-1.6321036130470787,2.5240125347529494,1.9629680725730168,0.483088412222206,4.01,0.1,0.139,0.186,0
128,1745189453.2297275,5.0,0.0,-5.0,0.0017549493350088,-0.0032212305814027,0.0003932940308004,0.0421416349709034,-0.0173418577760458,-9.754766464233398,0.0059161375697285,0.0137022565700326,-1.6313749096446035,2.758010834964976,1.5228541668986295,0.5274151084435188,4.01,0.1,0.139,0.186,0
128,1745189463.2570572,4.0,0.0,-5.0,-0.0042558289133012,0.0002049053873633,-0.0001793721021385,-0.0751636698842048,0.0303977262228727,-9.89510726928711,0.0056764989860559,0.0135086868008278,-1.6303463683166948,3.2782088536856384,2.1377223278219493,0.4319625369581686,4.01,0.1,0.139,0.186,0
128,1745189473.283514,3.0,0.0,-5.0,-0.0013537564082071,-0.0022397069260478,-0.0024641293566673,-0.013933615759015,-0.0654270723462104,-9.81062126159668,0.0056120325841138,0.0135848755735408,-1.6288878874542618,2.6141157526272742,1.715178341215359,0.5259592335167858,4.01,0.1,0.139,0.186,0
128,1745189484.1981666,2.0,0.0,-5.0,-6.820270937168971e-05,-0.0005121596623212,-0.0076759960502386,0.0251535158604383,-0.0397217273712158,-9.77853012084961,0.0058075551014745,0.0133984359091654,-1.628419821346858,2.51061449463716,2.4666972755412675,0.4482734772119198,4.01,0.1,0.139,0.186,0
128,1745189494.2252915,1.0,0.0,-5.0,0.0002623902691993,0.0028881267644464,-0.0006469074869528,0.0157625675201416,-0.079143151640892,-9.845354080200195,0.0057920160056189,0.0134968363133769,-1.6287980744110342,3.2619467229361776,1.5149538961749518,0.4292388747826354,4.01,0.1,0.139,0.186,0
