mission_id,time,real_x,real_y,real_z,vx,vy,vz,ax,ay,az,roll,pitch,yaw,wind_x,wind_y,wind_z,velocity,rain,fog,snow,is_attack,ligne_id
0,1.0,1744992589.0601318,0.0,0.0,-5.0,0.0024213138967752,-0.0038590342737734,0.0009638049523346,-0.0579900853335857,-0.0568407177925109,-9.735323905944824,0.0004676469958691,0.0026312812664675,-2.6632646130708557,3.029774510095694,2.3595225265516437,0.4207363547667251,17.65,0.36,0.046,0.144,1.0,0
1,1.0,1744992589.563954,2.0,0.0,-5.0,0.0024253474548459,-0.0002020984975388,0.0014848909340798,-0.0368406400084495,-0.0367648862302303,-9.7839994430542,0.0004366711468712,0.002528812237873,-2.663252660371651,2.633299647755139,2.143973029217728,0.5087611418736864,17.65,0.36,0.046,0.144,1.0,1
2,1.0,1744992591.0668466,4.0,0.0,-5.0,-0.0029047881253063,-0.0006944598862901,0.0015947212232276,-0.0493976213037967,0.0118948798626661,-9.831541061401367,0.0003950278967933,0.0025224312982626,-2.663085726641803,2.6002199477525445,1.9745603415823576,0.5191336415027802,17.65,0.36,0.046,0.144,1.0,2
3,1.0,1744992591.5742683,6.0,0.0,-5.0,0.0003226711123716,-0.003064383752644,-0.0005487648304551,-0.0628687068819999,-0.0972465872764587,-9.798310279846191,0.0004411947558407,0.002522945205105,-2.663127188072527,3.271523494327413,2.2297697324565613,0.4649023677122196,17.65,0.36,0.046,0.144,1.0,3
4,1.0,1744992592.078044,8.0,0.0,-5.0,0.001479611499235,-0.0002644148480612,0.0010387585498392,0.0861744359135627,0.0995806753635406,-9.823530197143556,0.0004537240664656,0.0025272705811875,-2.6631658409330004,3.2154489867267,2.419700010862304,0.4137180939465537,17.65,0.36,0.046,0.144,1.0,4
5,1.0,1744992592.5835197,10.0,0.0,-5.0,-0.001757622230798,0.0007205365691334,0.0015511441743001,0.0677400156855583,0.0168598406016826,-9.885490417480469,0.0003820336059556,0.0024108288399639,-2.6630880610071963,3.3772982616626748,1.93602116832527,0.5807094312116935,17.65,0.36,0.046,0.144,1.0,5
6,1.0,1744992593.088567,12.0,0.0,-5.0,0.0011677894508466,0.0012859366834163,0.0048916176892817,0.0553457699716091,-0.0107456101104617,-9.823891639709473,0.0004902176541949,0.0024281418188315,-2.6630489431216,2.693949869028674,2.3922638788077766,0.5624878765380426,17.65,0.36,0.046,0.144,1.0,6
7,1.0,1744992593.5943274,14.0,0.0,-5.0,0.0008396071498282,-0.0012761891121044,0.0030226467642933,-0.0258689876645803,0.0041181105189025,-9.783088684082031,0.0005367827445956,0.0024453677360171,-2.663002069441841,2.714314045510906,1.7083733040424272,0.4921290594286215,17.65,0.36,0.046,0.144,1.0,7
8,1.0,1744992594.0979605,16.0,0.0,-5.0,0.0030007704626768,-0.0011300867190584,0.0003333188360556,-0.0359167903661727,0.0670890882611274,-9.775635719299316,0.0006252524919141,0.0023953577740322,-2.662969775329677,3.493718523913292,1.5671066584100783,0.5817991891518153,17.65,0.36,0.046,0.144,1.0,8
9,1.0,1744992594.6046028,18.0,0.0,-5.0,0.0042627737857401,-0.0010740767465904,0.0013258785475045,-0.0276166666299104,-0.0047168293967843,-9.835748672485352,0.0006089863806796,0.0024126731791956,-2.662874296558434,3.391680132104775,1.84391015806808,0.5745534910211291,17.65,0.36,0.046,0.144,1.0,9
10,1.0,1744992595.1099148,20.0,0.0,-5.0,0.0035616969689726,-0.0005289583350531,0.0026358431205153,-0.0610406138002872,0.0001121431050705,-9.820630073547363,0.0005920184535385,0.0024119506590379,-2.6628875892967705,2.99618997193583,1.7206202272993338,0.5424243272522702,17.65,0.36,0.046,0.144,1.0,10
11,1.0,1744992595.6133022,18.0,0.0,-5.0,0.0029856024775654,0.0017493019113317,0.0044600614346563,0.0170672759413719,0.0869107618927955,-9.7992582321167,0.0005833956214729,0.0023968124424866,-2.6628232646223906,2.694843226020453,1.860833364081913,0.480494245763796,17.65,0.36,0.046,0.144,1.0,11
12,1.0,1744992596.119412,16.0,0.0,-5.0,0.0006367453024722,0.0014670125674456,0.0046077398583292,-0.0391246676445007,-0.0081676077097654,-9.799386978149414,0.0006474348688533,0.0024199370176083,-2.662796155843002,2.8803647722080297,2.462158599772737,0.4818204574383398,17.65,0.36,0.046,0.144,1.0,12
13,1.0,1744992596.6231568,14.0,0.0,-5.0,0.0015078041469678,0.0022117309272289,0.0035292038228362,-0.0297258216887712,-0.0415158420801162,-9.882543563842772,0.0005662789540011,0.0025089106806113,-2.662697051730789,2.907825713760741,1.661375271393143,0.4645841751691104,17.65,0.36,0.046,0.144,1.0,13
14,1.0,1744992597.128822,12.0,0.0,-5.0,-0.0027758199721574,0.0032225595787167,-0.0003768182941712,0.0467750802636146,-0.0050877085886895,-9.870847702026367,0.0005364570052009,0.002573223103809,-2.662638369675815,3.38281073488913,2.1805959847855605,0.5791330642693772,17.65,0.36,0.046,0.144,1.0,14
15,1.0,1744992597.632254,10.0,0.0,-5.0,-0.0022206981666386,0.0024896883405745,-0.0012334346538409,-0.0616137199103832,-0.0175689328461885,-9.793972969055176,0.0005123429085923,0.0025675847078592,-2.6625095086360755,2.789222273419078,2.158165907477237,0.4737494092047916,17.65,0.36,0.046,0.144,1.0,15
16,1.0,1744992598.1368797,8.0,0.0,-5.0,-0.0007971178274601,0.0009331858600489,0.0004863943322561,-0.0242520980536937,0.0496102459728717,-9.774616241455078,0.0004793825111627,0.0026339926728743,-2.6624344278535195,3.006659793064214,1.5476596360479575,0.5604227545238053,17.65,0.36,0.046,0.144,1.0,16
17,1.0,1744992598.6405752,6.0,0.0,-5.0,-0.0019433689303696,-0.0004724938480649,-0.0007442123605869,0.0697154030203819,-0.0529468953609466,-9.81993293762207,0.0004060119080883,0.0025819806935612,-2.662397966599041,3.0430932358316127,2.113823277113139,0.5405999085509817,17.65,0.36,0.046,0.144,1.0,17
18,1.0,1744992599.1450152,4.0,0.0,-5.0,-0.0021702239755541,-0.0038172549102455,-0.0022257154341787,-0.016587421298027,-0.1009100303053855,-9.78110694885254,0.0004205411007283,0.0026341902754675,-2.662349010255209,3.217747903184925,2.0967706606107983,0.4884804355108589,17.65,0.36,0.046,0.144,1.0,18
19,1.0,1744992599.6501503,2.0,0.0,-5.0,-0.002605106215924,-0.0051271505653858,-0.0032285591587424,0.0045020361430943,-0.0861663967370987,-9.796605110168455,0.000361601771083,0.002558065630209,-2.662344205260569,3.1737076293190145,2.0428241970806544,0.5400201496038982,17.65,0.36,0.046,0.144,1.0,19
20,1.0,1744992600.1561632,0.0,0.0,-5.0,-0.0038970748428255,-0.0040112962014973,-0.0028683303389698,0.0727058053016662,-0.0124071920290589,-9.851924896240234,0.0004228735453568,0.0024639717281876,-2.6622534918545653,2.7144485401298226,1.5935926844459547,0.4085843206867627,17.65,0.36,0.046,0.144,1.0,20
21,2.0,1744992602.1073766,0.0,0.0,-5.0,-0.0020293353591114,0.0003651956212706,-0.0024329819716513,0.0297986213117837,0.0283183082938194,-9.80071258544922,0.00051351035498,0.0023113446311893,-2.662241468740577,3.2988469249160475,2.211576751671127,0.4222602459621146,13.02,0.09,0.118,0.398,1.0,0
22,2.0,1744992602.612288,2.0,0.0,-5.0,-0.0013440594775602,0.0010726479813456,-0.0040647163987159,-0.0522161535918712,-0.0168848261237144,-9.800041198730469,0.0004722467606658,0.0022199542769573,-2.6622347464279645,3.335883840976005,1.9024836931370044,0.5175751461282161,13.02,0.09,0.118,0.398,1.0,1
23,2.0,1744992603.1178856,4.0,0.0,-5.0,-0.0003980072797276,0.0018968512304127,-0.0045303478837013,0.0199362952262163,0.0291263982653617,-9.779898643493652,0.0005524734686286,0.0022844082294595,-2.662266575547485,2.7591152837522754,1.7438390043213812,0.4294386569725997,13.02,0.09,0.118,0.398,1.0,2
24,2.0,1744992603.6252823,6.0,0.0,-5.0,0.0032162265852093,0.0038075593765825,-0.0044273966923356,-0.0154953254386782,-0.0051312162540853,-9.743806838989258,0.0005344719231834,0.0023053412713668,-2.6622898246052595,2.7306793443205186,2.130823987790959,0.4202468922038159,13.02,0.09,0.118,0.398,1.0,3
25,2.0,1744992604.1303897,8.0,0.0,-5.0,0.0006759454263374,0.0041762245818972,-0.0026105425786226,0.0442013628780841,0.0951632037758827,-9.810276985168455,0.0004591895809209,0.002298296562097,-2.662284408358911,3.4798577162312383,2.300632545183289,0.4252794449589568,13.02,0.09,0.118,0.398,1.0,4
26,2.0,1744992604.633943,10.0,0.0,-5.0,-0.001064020791091,0.004016597289592,-0.0001326750498265,0.0334805063903331,-0.0314325094223022,-9.875929832458496,0.0004584312965598,0.0023563678607607,-2.662311706113308,2.598640346880539,2.44272903935438,0.4212982170915997,13.02,0.09,0.118,0.398,1.0,5
27,2.0,1744992605.1391437,12.0,0.0,-5.0,-0.0027384753338992,0.0028816652484238,-0.0005741887725889,0.0004049265407957,-0.0110665392130613,-9.838129043579102,0.0003953971281777,0.0024263422284102,-2.6623467469419317,3.147683295081055,1.699985789500817,0.4240589667228349,13.02,0.09,0.118,0.398,1.0,6
28,2.0,1744992605.6425114,14.0,0.0,-5.0,-0.0033290712162852,0.002092785667628,0.0004817440640181,-0.0879737436771392,-0.0305592492222785,-9.830955505371094,0.0004701686517535,0.0024450752762284,-2.6623187646923494,2.9541454449376143,1.5051343307651837,0.4327202389683959,13.02,0.09,0.118,0.398,1.0,7
29,2.0,1744992606.1459212,16.0,0.0,-5.0,-0.0045992201194167,0.0024875048547983,0.0030772583559155,0.0231942608952522,0.0211702175438404,-9.815174102783203,0.0004993047512932,0.0024667147402686,-2.66235117228732,2.644523078563032,1.9475299089089768,0.5659210057206113,13.02,0.09,0.118,0.398,1.0,8
30,2.0,1744992606.6515856,18.0,0.0,-5.0,0.0005475655198097,0.0023120318073779,0.0026315429713577,-0.0189258884638547,0.0242269355803728,-9.79250717163086,0.0005329291425082,0.0025627855699957,-2.662348748073585,2.855440109500586,2.282873975981732,0.5186810451438235,13.02,0.09,0.118,0.398,1.0,9
31,2.0,1744992607.156062,20.0,0.0,-5.0,0.0014765361556783,0.0007608262822031,0.0025831148959696,-0.0212439000606536,-0.0745782777667045,-9.80391788482666,0.0005464230795184,0.002536630580089,-2.6622853200152305,3.010426958556065,1.779291988166522,0.4882037228063607,13.02,0.09,0.118,0.398,1.0,10
32,2.0,1744992607.6596649,18.0,0.0,-5.0,0.0017651586094871,-0.000645330408588,0.0028517690952867,0.0120316678658127,-0.038608893752098,-9.794760704040527,0.0005262414410978,0.0025750920573243,-2.662305409966856,3.376397932068423,2.3902161439164824,0.5085846911710649,13.02,0.09,0.118,0.398,1.0,11
33,2.0,1744992608.165365,16.0,0.0,-5.0,-4.654557051253505e-05,-0.0027469438500702,0.0003554530558176,0.0097279679030179,0.0448982752859592,-9.786046981811523,0.0005118752892022,0.0025825116682044,-2.662333890204316,2.915337570061704,1.8324035390363844,0.4926383373969632,13.02,0.09,0.118,0.398,1.0,12
34,2.0,1744992608.6702032,14.0,0.0,-5.0,-0.0017013627802953,-0.0017609327333047,-0.0014120744308456,-0.0459265485405921,0.0344229713082313,-9.775815963745115,0.0005255081572596,0.0025863915586103,-2.662261957714009,3.076878991480668,2.4494750212919065,0.5216351767568186,13.02,0.09,0.118,0.398,1.0,13
35,2.0,1744992609.1746442,12.0,0.0,-5.0,-0.0020170013885945,0.0003378053952474,-0.0020743440836668,-0.0178937744349241,0.0493809059262275,-9.799718856811523,0.000544215354707,0.0025500619518941,-2.6621809848571414,2.739095178598534,1.7728981417175644,0.5420592172166159,13.02,0.09,0.118,0.398,1.0,14
36,2.0,1744992609.6803658,10.0,0.0,-5.0,-0.0010381963802501,0.0009800577536225,-0.0031963337678462,0.0517279207706451,0.0073872492648661,-9.78714656829834,0.0004409748319814,0.0025361349283348,-2.662091961223899,3.1492876945923385,2.311629238742249,0.5604650066211223,13.02,0.09,0.118,0.398,1.0,15
37,2.0,1744992611.1852474,8.0,0.0,-5.0,-0.0012158170575276,-0.0014410776784643,-0.004108783788979,-0.0282063726335763,0.0267090015113353,-9.832372665405272,0.0004784540337098,0.0024307958821133,-2.662091291770221,3.4546033747170566,1.9624398337278863,0.5855982526199393,13.02,0.09,0.118,0.398,1.0,16
38,2.0,1744992611.6914315,6.0,0.0,-5.0,-1.0002248018281534e-05,0.0025029338430613,-0.002591683762148,0.0692753419280052,0.0704866126179695,-9.809369087219238,0.0004620878814371,0.0024321855203607,-2.6618903341560523,3.0266010674839365,1.8084167213250684,0.4825898040905957,13.02,0.09,0.118,0.398,1.0,17
39,2.0,1744992612.1972926,4.0,0.0,-5.0,-0.0008643342880532,0.0005903615383431,-0.0030235713347792,-0.0281343441456556,0.0016136668855324,-9.765912055969238,0.0004691193071422,0.0024228705264974,-2.6619244156820465,2.736091037055746,1.7164838730178062,0.592873541567206,13.02,0.09,0.118,0.398,1.0,18
40,2.0,1744992612.7051358,2.0,0.0,-5.0,-0.0013342398451641,0.0012481088051572,-0.002188968937844,-0.0473590269684791,-0.0229171104729175,-9.84917449951172,0.0004815947203651,0.0025096248608163,-2.662009044820403,3.3116659803782795,2.2739596097933275,0.4260807574034967,13.02,0.09,0.118,0.398,1.0,19
41,2.0,1744992613.2117429,0.0,0.0,-5.0,0.0013379780575633,0.0023585420567542,-0.0018862886354327,0.0043087848462164,-0.0051558236591517,-9.771368980407717,0.0004781455089492,0.002488964930271,-2.6619381871684165,2.6452171779707383,1.6634462432004544,0.4756015670357756,13.02,0.09,0.118,0.398,1.0,20
42,3.0,1744993190.9442298,0.0523413233458995,0.0021000255364924,-4.904167175292969,0.0138233182951807,0.0257830079644918,-0.3822417855262756,-0.0711119994521141,-0.084031157195568,-8.899982452392578,-0.0123927020381132,0.0065509747432009,-3.0206714652657083,3.3903252754476787,2.0010608560666063,0.5564786261310973,5.2,0.1,0.205,0.25,1.0,0
43,3.0,1744993193.2126732,2.112267255783081,-0.0927932932972908,-4.952857971191406,0.7081243991851807,0.0463022552430629,0.0774520859122276,-0.0888396129012107,0.0164379775524139,-10.079087257385254,-0.122887949671707,-0.0099200423832495,-3.1249643859545126,3.035359080290618,2.015414217338066,0.5830211991700814,5.2,0.1,0.205,0.25,1.0,1
44,3.0,1744993197.0611184,4.265334129333496,0.139399766921997,-4.2310333251953125,0.0310991425067186,0.0694871991872787,0.7867644429206848,-0.0394100733101367,0.0212585218250751,-9.700505256652832,-0.0006834769105119,0.0001406477018395,-3.1312784266105718,2.681832626345418,2.413421719815931,0.5281427991277902,5.2,0.1,0.205,0.25,1.0,2
45,3.0,1744993197.566537,4.215015411376953,0.1666625738143921,-3.835494995117188,0.0003406024770811,0.0946360751986503,0.8026763200759888,-0.1891327500343322,0.0011627450585365,-9.826152801513672,-0.000319405053349,-7.151300630073769e-05,-3.130463033676067,3.345157727085697,2.496470055685598,0.5392763745341091,5.2,0.1,0.205,0.25,1.0,3
46,3.0,1744993198.0701537,4.169126987457275,0.2128706872463226,-3.43304443359375,-0.0214689411222934,0.1256760060787201,0.7798634171485901,-0.0839691460132598,-0.0300054177641868,-9.91495132446289,-0.0002603881353385,-4.9931889689486735e-05,-3.1301909983541707,2.635492319928156,2.1669428181233346,0.4726248395070671,5.2,0.1,0.205,0.25,1.0,4
47,3.0,1744993199.572913,10.0,0.0,-5.0,-0.0143554480746388,0.2227528244256973,0.705543577671051,-0.0029576644301414,0.0213281884789466,-9.84225368499756,-6.84762231392115e-06,-1.1100243942701177e-05,-3.129428535335023,2.854690313651828,2.071064844516925,0.5627935534008031,5.2,0.1,0.205,0.25,1.0,5
48,3.0,1744993200.0768244,12.0,0.0,-5.0,-9.776375372894108e-05,0.2641322612762451,0.690199077129364,-0.1269621849060058,-0.0187071412801742,-9.904522895812988,4.180380922569629e-05,-8.163472102082863e-05,-3.1291114388734265,2.6194458143890484,2.373430863770759,0.4943952630181399,5.2,0.1,0.205,0.25,1.0,6
49,3.0,1744993200.579811,14.0,0.0,-5.0,0.0189762841910123,0.3067734241485595,0.6824639439582825,0.0730923265218734,-0.0672010779380798,-9.830082893371582,8.901907204095128e-05,-5.166471690122536e-06,-3.129046591269272,2.777978024818359,2.3924118124107743,0.4830267747038998,5.2,0.1,0.205,0.25,1.0,7
50,3.0,1744993201.0835643,16.0,0.0,-5.0,0.0417985469102859,0.3354508280754089,0.679439902305603,-0.0382968857884407,-0.0235981084406375,-9.844231605529783,6.068657666503326e-05,-1.904316206882751e-05,-3.1291128690351027,3.231712844906528,1.788179506405296,0.4283349475416946,5.2,0.1,0.205,0.25,1.0,8
51,3.0,1744993201.5883622,18.0,0.0,-5.0,0.0590464957058429,0.3674889802932739,0.6824109554290771,0.0210320279002189,0.0633924528956413,-9.818398475646973,0.0001109466817429,4.354044892308095e-05,-3.1289574223285537,2.6064668658354724,1.858403990051468,0.4389407173817604,5.2,0.1,0.205,0.25,1.0,9
52,3.0,1744993202.091844,20.0,0.0,-5.0,0.0845198631286621,0.4018278419971466,0.6878544688224792,-0.0702347159385681,0.0034677404910326,-9.863990783691406,0.0001204705864571,-5.586496804098807e-06,-3.12891164464199,2.9766379559811287,2.0009366250049747,0.5657253069430763,5.2,0.1,0.205,0.25,1.0,10
53,3.0,1744993202.5963683,18.0,0.0,-5.0,0.1100399643182754,0.4296269714832306,0.6927252411842346,-0.018981147557497,-0.0086901634931564,-9.81135082244873,8.61346207468577e-06,-9.90014153311498e-05,-3.128881605661075,3.0512709579254302,1.7332431367237773,0.5304829274018471,5.2,0.1,0.205,0.25,1.0,11
54,3.0,1744993203.099359,16.0,0.0,-5.0,0.1292827725410461,0.4563031494617462,0.6941268444061279,0.0015374273061752,-0.0144986314699053,-9.835137367248535,6.284838212115017e-05,-2.271540853149198e-05,-3.128788858702272,2.8844653111832006,1.5043858023607115,0.4627814895228423,5.2,0.1,0.205,0.25,1.0,12
55,3.0,1744993203.6041968,14.0,0.0,-5.0,0.1555547565221786,0.4909274578094482,0.6934369802474976,-0.1185322478413581,0.0044242125004529,-9.705642700195312,8.582743160681994e-05,3.808037384858701e-06,-3.12872353053582,3.2165859338338167,2.355496166727882,0.4369489896074958,5.2,0.1,0.205,0.25,1.0,13
56,3.0,1744993204.1078272,12.0,0.0,-5.0,0.1770985722541809,0.5174697041511536,0.6947884559631348,-0.0928546786308288,0.0253713093698024,-9.698118209838867,2.8234182702950545e-05,1.0626883910235125e-06,-3.128625064346203,3.154211492569506,1.7846132950833722,0.4462840357320516,5.2,0.1,0.205,0.25,1.0,14
57,3.0,1744993204.6117227,10.0,0.0,-5.0,0.1961914598941803,0.5446857810020447,0.6966480612754822,-0.0583605878055095,-0.0112234419211745,-9.768156051635742,8.461347878251469e-05,3.168337124603534e-05,-3.128504184101488,3.14136136773808,1.9091269180678785,0.4291729047193254,5.2,0.1,0.205,0.25,1.0,15
58,3.0,1744993205.1154046,8.0,0.0,-5.0,0.2152183949947357,0.5688684582710266,0.6984977126121521,-0.110852263867855,-0.0209460072219371,-9.767084121704102,4.633563918019758e-05,-1.152680210620564e-05,-3.1282702988226867,3.340779147835217,1.669919717171318,0.4931748482661284,5.2,0.1,0.205,0.25,1.0,16
59,3.0,1744993205.62044,6.0,0.0,-5.0,0.236314594745636,0.591948926448822,0.6976588368415833,0.0538606457412242,-0.0619289763271808,-9.891234397888184,2.342634044487373e-05,-7.056352380197773e-05,-3.1280104219960543,3.313419661495791,1.5260209657886752,0.4612387449977589,5.2,0.1,0.205,0.25,1.0,17
60,3.0,1744993206.1241615,4.0,0.0,-5.0,0.2483462691307068,0.6264999508857727,0.696191132068634,-0.0571607425808906,-0.0418236926198005,-9.831304550170898,5.452857581215717e-05,2.28663350524093e-06,-3.128003027045351,2.901504715067497,2.2653692857464645,0.4749466470917907,5.2,0.1,0.205,0.25,1.0,18
61,3.0,1744993206.6285732,2.0,0.0,-5.0,0.2640223205089569,0.6506090760231018,0.6970115900039673,-0.1019333899021148,-0.0242691598832607,-9.888774871826172,8.635888411824057e-06,-1.9587957679630423e-05,-3.127926263792824,3.293233226434256,1.7938792950151177,0.5333445783886209,5.2,0.1,0.205,0.25,1.0,19
62,3.0,1744993207.132191,0.0,0.0,-5.0,0.2755849659442901,0.6790175437927246,0.695234477519989,0.0169462747871875,0.073557823896408,-9.866329193115234,-1.435082189589419e-05,1.7683303349594718e-05,-3.12782063846135,2.9033993548805084,1.8506061481264489,0.5443893657736526,5.2,0.1,0.205,0.25,1.0,20
63,5.0,1744993233.110213,0.1989499777555465,0.8241667747497559,-4.655891418457031,0.6885781288146973,0.933006763458252,-0.143214538693428,-0.0434254072606563,-0.0690343752503395,-10.75374984741211,-0.1104641799748694,0.1942663458565137,-3.0301090524359835,2.7524271127991398,2.470786788392426,0.4432339655907306,6.6,0.2,0.275,0.456,1.0,0
64,5.0,1744993242.4392238,0.984332799911499,-1.5298056602478027,-3.8258056640625,-1.030045747756958,-1.9982244968414309,0.5502035617828369,-0.1639342606067657,-0.1035195440053939,-10.040596961975098,-0.0049531717451159,0.0062816145036271,-3.0053909902547704,2.9773436925381755,1.977462806709981,0.5994856109870692,6.6,0.2,0.275,0.456,1.0,1
65,5.0,1744993242.9442806,4.0,0.0,-5.0,-1.168626070022583,-2.3074841499328613,0.5237483978271484,-0.1635848730802536,-0.157982051372528,-9.890464782714844,-0.0013713913817411,0.0020910123308742,-3.0080436109540685,2.6081978681560303,2.3975070631444746,0.5885010859760142,6.6,0.2,0.275,0.456,1.0,2
66,5.0,1744993243.4485404,6.0,0.0,-5.0,-1.2237392663955688,-2.520638227462769,0.5265442132949829,-0.150357961654663,-0.0488701276481151,-9.841959953308104,-0.0008566531873679,0.0014209705283456,-3.010025639350281,2.7607992094417457,1.541506044591187,0.426809221746525,6.6,0.2,0.275,0.456,1.0,3
67,5.0,1744993243.9555616,8.0,0.0,-5.0,-1.2175408601760864,-2.621329069137573,0.5514559745788574,-0.1089706122875213,-0.1025957018136978,-9.733112335205078,-0.0003158877920273,0.0007189997837891,-3.011689302543319,3.08285284153677,2.2274513067192534,0.5867720818688931,6.6,0.2,0.275,0.456,1.0,4
68,5.0,1744993244.4617243,10.0,0.0,-5.0,-1.1793750524520874,-2.648698091506958,0.5889278054237366,-0.1051310151815414,-0.120753489434719,-9.73474407196045,4.620929653430042e-06,-0.0026956165210616,-3.012912887765377,2.7391679363582435,2.2970177621822323,0.4454742590929012,6.6,0.2,0.275,0.456,1.0,5
69,5.0,1744993244.9658844,12.0,0.0,-5.0,-1.0980520248413086,-2.643790006637573,0.6243621706962585,-0.1651131063699722,-0.0471436418592929,-9.753090858459473,0.0002132988302929,0.0007501819648903,-3.013978589614541,3.485362364777532,1.5126848630502567,0.5570580445557523,6.6,0.2,0.275,0.456,1.0,6
70,5.0,1744993245.4697251,14.0,0.0,-5.0,-1.033522367477417,-2.6052145957946777,0.6496845483779907,-0.1650518029928207,-0.0621611401438713,-9.704155921936035,0.0003253774496735,3.303735178693963e-05,-3.0146798120484064,2.7451159543478925,1.79152035975427,0.4900665932424341,6.6,0.2,0.275,0.456,1.0,7
71,5.0,1744993245.9786265,16.0,0.0,-5.0,-0.947050392627716,-2.537160873413086,0.6708917617797852,-0.1312408745288849,-0.1030288487672805,-9.770203590393066,0.000427608819084,-6.120416229279862e-05,-3.015347367069062,3.3193509540691046,2.339179133543185,0.5990837591786004,6.6,0.2,0.275,0.456,1.0,8
72,5.0,1744993246.482036,18.0,0.0,-5.0,-0.8787571787834167,-2.458266496658325,0.6795457005500793,-0.0755251720547676,-0.1034203767776489,-9.781600952148438,0.0004681939624061,-0.000214551330891,-3.0157338791684363,2.694448711278812,2.4378961543161606,0.4124338831332794,6.6,0.2,0.275,0.456,1.0,9
73,5.0,1744993246.9881892,20.0,0.0,-5.0,-0.7981407046318054,-2.3837294578552246,0.6880149841308594,-0.1454085111618042,-0.0397985056042671,-9.819266319274902,0.000363880002035,-0.0003047016453586,-3.016015894461088,3.2541338493244094,2.2737549720204937,0.5035178820249959,6.6,0.2,0.275,0.456,1.0,10
74,5.0,1744993247.4922235,18.0,0.0,-5.0,-0.732142984867096,-2.313622236251831,0.6923214197158813,-0.0567204654216766,-0.1540840715169906,-9.786142349243164,0.0003298970160773,-0.0003044948583265,-3.0162214125499607,2.962554950352308,2.3875188188525343,0.563325153411902,6.6,0.2,0.275,0.456,1.0,11
75,5.0,1744993247.9977052,16.0,0.0,-5.0,-0.6629186272621155,-2.2485218048095703,0.6940934062004089,-0.0892639532685279,-0.1479750424623489,-9.919715881347656,0.0002499371546922,-0.0002567838855145,-3.0162929557666724,3.2701032050175174,2.23317288574183,0.5991525189526405,6.6,0.2,0.275,0.456,1.0,12
76,5.0,1744993248.501937,14.0,0.0,-5.0,-0.5989828109741211,-2.193007469177246,0.6945358514785767,-0.1137522906064987,-0.1392298191785812,-9.786822319030762,0.0002110892795837,-0.0002152834094725,-3.0161923333041023,3.4963345249984745,2.158835514615346,0.5538279706670987,6.6,0.2,0.275,0.456,1.0,13
77,5.0,1744993249.006735,12.0,0.0,-5.0,-0.5612062811851501,-2.158492088317871,0.6943156719207764,-0.0278242006897926,-0.1441839188337326,-9.77379322052002,0.0001482488942535,-0.000261039736072,-3.0162991470488283,2.891601494979936,1.8135562850142783,0.4999793331938891,6.6,0.2,0.275,0.456,1.0,14
78,5.0,1744993249.5118124,10.0,0.0,-5.0,-0.5339499711990356,-2.113055229187012,0.6959515810012817,-0.087193988263607,-0.1400410532951355,-9.873927116394045,0.0001279147214021,-0.000231966057617,-3.016481065942133,2.5145699475076277,2.453168423001659,0.5758211648549936,6.6,0.2,0.275,0.456,1.0,15
79,5.0,1744993250.0152788,8.0,0.0,-5.0,-0.4959961473941803,-2.096063137054444,0.6941011548042297,-0.106400154531002,-0.0422660484910011,-9.81562614440918,3.5659846510788534e-05,-9.462280912080672e-05,-3.0166860866589738,3.080275159222236,1.6305815145856726,0.4681327321806519,6.6,0.2,0.275,0.456,1.0,16
80,5.0,1744993250.5206606,6.0,0.0,-5.0,-0.4649063944816589,-2.0846376419067383,0.693842351436615,-0.0929341092705726,-0.1245305836200714,-9.852045059204102,7.033676567442337e-05,-7.025255711162112e-05,-3.0167020547294072,3.171957837278559,1.6014042348974296,0.4774592252124337,6.6,0.2,0.275,0.456,1.0,17
81,5.0,1744993251.026456,4.0,0.0,-5.0,-0.4442850351333618,-2.0662841796875,0.6961650848388672,-0.0778273493051529,-0.0414988547563552,-9.844497680664062,-1.4034460112319618e-05,-4.211336908861664e-05,-3.01669347781505,2.802210108247577,2.057199250980238,0.5163870178072265,6.6,0.2,0.275,0.456,1.0,18
82,5.0,1744993251.5302742,2.0,0.0,-5.0,-0.4301914572715759,-2.0461630821228027,0.6957918405532837,-0.0849872380495071,-0.1149904280900955,-9.802884101867676,-3.6539999585195926e-06,5.04429607147743e-05,-3.016751186632236,2.622712381995158,2.218991969775216,0.5832015559233601,6.6,0.2,0.275,0.456,1.0,19
83,5.0,1744993252.0345936,0.0,0.0,-5.0,-0.4107320308685303,-2.0491621494293213,0.6981992721557617,-0.1279474198818206,-0.1123374104499816,-9.86093521118164,1.8184156837562832e-05,-5.857796535694561e-05,-3.0167497482448518,3.044464853345943,1.508756433306096,0.5441257934591667,6.6,0.2,0.275,0.456,1.0,20
84,7.0,1744993275.1859937,-0.066921442747116,2.092857599258423,-5.013519287109375,0.1783578842878341,1.8628696203231807,0.3744831383228302,-0.1223550587892532,0.0321081653237342,-12.430852890014648,-0.1155841118626195,0.645302232795677,-3.0561956197563958,3.141889157806129,2.233741208651295,0.4516150222614247,10.13,0.36,0.181,0.347,1.0,0
85,7.0,1744993290.1455655,2.0933678150177,-1.2271597385406494,-5.008049011230469,-0.6000128388404846,-0.8293851613998413,-0.0945375487208366,-0.126320868730545,-0.0658419281244278,-10.084425926208496,0.0968079111571387,-0.264819798275699,-2.9565941000833096,3.4432363305070326,1.9854786696415387,0.4800660207255676,10.13,0.36,0.181,0.347,1.0,1
86,7.0,1744993292.857126,4.3622822761535645,0.3646756112575531,-4.980491638183594,0.726606011390686,0.7864623665809631,0.022329743951559,-0.0225946679711341,0.0386680997908115,-10.110069274902344,-0.1949371144825306,0.1396951136934223,-2.9607148850769858,3.172631352302372,2.0353708557732677,0.483971993463098,10.13,0.36,0.181,0.347,1.0,2
87,7.0,1744993295.023919,6.090193748474121,-0.026462672278285,-4.976318359375,0.1885862499475479,-0.6868502497673035,-0.0403644256293773,-0.1064218431711196,0.059315450489521,-9.862065315246582,-0.0455845753237867,-0.0885558789140711,-2.9553557475069527,3.3121257047982064,1.9622602474595083,0.5861188403400674,10.13,0.36,0.181,0.347,1.0,3
88,7.0,1744993297.7609067,8.216639518737793,-0.0981116890907287,-5.014274597167969,0.3788196742534637,0.5423427224159241,0.0203819125890731,-0.0577430836856365,-0.0106546720489859,-9.90065860748291,-0.1116594539912542,0.0355155051661484,-2.9528950444453947,2.684080762528257,1.8248590216170308,0.4305569136451196,10.13,0.36,0.181,0.347,1.0,4
89,7.0,1744993300.0905664,10.049528121948242,0.1631015390157699,-4.9896392822265625,0.4842458963394165,-0.3601427674293518,0.0036758757196366,-0.0361992493271827,-0.0700996592640876,-9.87444305419922,-0.0845362596363632,-0.0266846099478041,-2.9638005626468,2.760482224248352,2.329018284616135,0.589297143183583,10.13,0.36,0.181,0.347,1.0,5
90,7.0,1744993302.3391168,12.063518524169922,-0.2641976177692413,-4.992805480957031,0.5215724110603333,0.2518807053565979,6.122342892922461e-05,-0.101824939250946,0.0432944595813751,-9.825641632080078,-0.0951011661402446,-0.0275799412064419,-2.9590455517613683,3.319278910154841,2.379047834562704,0.5280226898620498,10.13,0.36,0.181,0.347,1.0,6
91,7.0,1744993304.4592762,13.957330703735352,0.1964181214570999,-4.996177673339844,0.5781399607658386,-0.0660739466547966,0.0046049212105572,-0.0604333654046058,-0.0163606368005275,-9.85305118560791,-0.0921702664004534,0.0118572091132196,-2.962436772185374,3.116952257573266,2.082928759664798,0.4811431636581895,10.13,0.36,0.181,0.347,1.0,7
92,7.0,1744993306.5459435,15.971678733825684,-0.1051193475723266,-4.999153137207031,0.6172773241996765,-0.0577153898775577,0.0098453434184193,-0.0537244714796543,-0.032465822994709,-9.816736221313477,-0.0915158679214704,-0.0413778751460672,-2.9612160735330093,3.1728783436772434,2.003390531142093,0.4583785286562574,10.13,0.36,0.181,0.347,1.0,8
93,7.0,1744993308.62822,17.95623207092285,-0.0027994199190288,-4.995040893554688,0.5876588225364685,0.1067127287387847,0.0055260765366256,-0.0331325680017471,-0.0379184819757938,-9.882863998413086,-0.093459361223419,-0.0021536638450495,-2.9630041985789672,2.874723883785281,2.393769010421772,0.480681194626921,10.13,0.36,0.181,0.347,1.0,9
94,7.0,1744993310.731299,19.968355178833008,0.0520327724516391,-4.990699768066406,0.6114974617958069,-0.0751473605632782,0.0017758894246071,-0.0762738585472107,0.0091864727437496,-9.86540985107422,-0.0954409850822424,-0.0160471762937787,-2.963827209500736,2.888555852039924,1.804879295511911,0.5048245246139242,10.13,0.36,0.181,0.347,1.0,10
95,7.0,1744993313.0680006,17.651132583618164,-0.1129457801580429,-4.9660186767578125,-0.9550233483314514,0.0821182653307914,-0.0690162777900695,-0.1946353018283844,-0.0331423282623291,-9.973610877990724,0.1661239839641721,0.0236845490343358,-2.957629781504992,3.2154179338989857,1.7505685929810144,0.4268823889194268,10.13,0.36,0.181,0.347,1.0,11
96,7.0,1744993314.417517,16.027307510375977,0.0207162294536829,-5.0106048583984375,-0.6766461133956909,0.0722654536366462,-0.0236213095486164,-0.0826452523469924,-0.0695460364222526,-9.740352630615234,0.0850832178091351,0.0303725543912804,-2.957435220292554,2.9815409383327967,1.5637225556190384,0.4365517119960897,10.13,0.36,0.181,0.347,1.0,12
97,7.0,1744993316.6069813,14.070467948913574,0.0363535061478614,-5.008056640625,-0.6052943468093872,-0.0573758222162723,-0.0052049388177692,-0.2170007675886154,-0.0256140045821666,-9.871183395385742,0.0701993807923188,0.0179253100791109,-2.9563482938779844,3.472671405511972,1.8028666555181747,0.455453653845016,10.13,0.36,0.181,0.347,1.0,13
98,7.0,1744993318.7480488,12.00412654876709,-0.0658556148409843,-5.002967834472656,-0.6536176204681396,0.0469046980142593,-0.0083896266296505,-0.0990800410509109,-0.0154185201972723,-9.881465911865234,0.0914750619781344,0.0146106887104962,-2.958494974875318,2.556332025433096,2.4943729604980134,0.4304033481703493,10.13,0.36,0.181,0.347,1.0,14
99,7.0,1744993320.798046,10.038884162902832,0.0200572051107883,-5.001091003417969,-0.625219464302063,0.0135917952284216,-0.0112729929387569,-0.0035298392176628,-0.0603541582822799,-9.88709545135498,0.084236436151934,0.0233082450683552,-2.959338054363258,2.537608811464631,1.756868368695891,0.554117108777655,10.13,0.36,0.181,0.347,1.0,15
100,7.0,1744993322.9005954,8.03743839263916,-0.003655248787254,-4.99810791015625,-0.5998433232307434,-0.0151561116799712,-0.016401182860136,-0.1875338554382324,-0.0143855698406696,-9.832564353942873,0.0823342128040656,0.0154270909846395,-2.9601314729772144,3.277415992170254,2.287751324577292,0.5635259119936693,10.13,0.36,0.181,0.347,1.0,16
101,7.0,1744993325.0003884,6.052047729492188,-0.0311155635863542,-5.004684448242188,-0.6424762606620789,0.0236840695142745,-0.0109470505267381,-0.1353330165147781,-0.0476740449666976,-9.874343872070312,0.088616611263093,0.0165544252457697,-2.9611276252290346,2.7537042383745325,1.8173652162571383,0.5484873325798416,10.13,0.36,0.181,0.347,1.0,17
102,7.0,1744993327.0582,4.058266639709473,-0.0018058673013001,-5.0040130615234375,-0.6190484762191772,0.0097538465633988,-0.0099161826074123,-0.0285091176629066,-0.005143545102328,-9.842574119567873,0.0829680769254779,0.0184737194188234,-2.96224802231917,3.119833371223341,1.6275570694836246,0.4603166301107466,10.13,0.36,0.181,0.347,1.0,18
103,7.0,1744993329.1207235,2.0379419326782227,0.005554755218327,-4.999244689941406,-0.630769670009613,-0.0017109354957938,-0.0167327392846345,-0.0272830948233604,0.0504007413983345,-9.839034080505373,0.0884767482183579,0.0196382362511448,-2.962371451102229,2.624000158374153,2.342501886291772,0.5961650495406342,10.13,0.36,0.181,0.347,1.0,19
104,7.0,1744993333.201327,-0.2865324020385742,0.0037927599623799,-4.2772064208984375,0.0556693486869335,0.0319054126739501,0.8052986264228821,-0.1340984851121902,0.0005544926971197,-9.713019371032717,0.001546980393964,-0.0012203359638507,-2.9616336112909427,3.083651105970109,2.23301787346072,0.447599694283317,10.13,0.36,0.181,0.347,1.0,20
105,8.0,1744993334.8914788,0.0868755504488945,0.0926411375403404,-2.9048614501953125,0.2211053371429443,0.0729479566216468,0.7471278309822083,-0.0637610405683517,-0.010292649269104,-9.871179580688477,0.0001159324771398,-1.3771707925239122e-06,-2.960865385410954,3.300483404623747,1.9052660193066384,0.5987727821697651,14.28,0.04,0.052,0.175,1.0,0
106,8.0,1744993335.3951857,0.2053713798522949,0.1347795575857162,-2.5231170654296875,0.2445538789033889,0.0827333852648735,0.7177313566207886,-0.0246454179286956,-0.0775435119867324,-9.853267669677734,-6.838804165313185e-05,0.0006783809635907,-2.960590003313821,3.2728233043764026,2.2511972403227887,0.4816564632505318,14.28,0.04,0.052,0.175,1.0,1
107,8.0,1744993335.8987963,0.3255520761013031,0.1863643229007721,-2.1475830078125,0.2528933882713318,0.1043730452656745,0.6995511651039124,-0.0913509503006935,-0.0559909343719482,-9.791219711303713,-0.0001319634798717,-0.0004855052602074,-2.960528039950958,3.1110427055345533,2.244426143411018,0.4271421467567181,14.28,0.04,0.052,0.175,1.0,2
108,8.0,1744993336.4046197,6.0,0.0,-5.0,0.2587009370326996,0.1171231344342231,0.6902157664299011,-0.0788154602050781,-0.0163118988275527,-9.773366928100586,8.883822745794326e-06,-0.0002021945811465,-2.960362782981048,2.967507775245989,1.709594402420639,0.5012272522684689,14.28,0.04,0.052,0.175,1.0,3
109,8.0,1744993336.909593,8.0,0.0,-5.0,0.2636218667030334,0.1314156651496887,0.6850364804267883,-0.0428751781582832,-0.0286192167550325,-9.75692367553711,-0.0001077295591647,-0.000179419495393,-2.960167566904889,3.063671072681703,2.2713529249497544,0.510822565321751,14.28,0.04,0.052,0.175,1.0,4
110,8.0,1744993337.4147997,10.0,0.0,-5.0,0.2575323581695556,0.1460637897253036,0.68378084897995,-0.0678368285298347,-0.0213425755500793,-9.821438789367676,-0.000126434985538,-0.0001194485129423,-2.959922443434162,2.6452412071287084,2.032985068267284,0.4356713387134605,14.28,0.04,0.052,0.175,1.0,5
111,8.0,1744993337.9187186,12.0,0.0,-5.0,0.2580527365207672,0.162685677409172,0.6864377856254578,-0.0375280678272247,-0.0298552885651588,-9.802264213562012,-0.0001192359403146,-6.0916578666239984e-05,-2.959580071490242,2.946131175596042,2.4341963632214823,0.5895547824284744,14.28,0.04,0.052,0.175,1.0,6
112,8.0,1744993338.423894,14.0,0.0,-5.0,0.2577140927314758,0.1749643087387085,0.6884999871253967,-0.1203948184847831,-0.0703030526638031,-9.758535385131836,-0.0001743309107518,-0.0001064197575359,-2.959316143129017,3.10557835112249,1.5645932658848136,0.468680613573155,14.28,0.04,0.052,0.175,1.0,7
113,8.0,1744993338.9272408,16.0,0.0,-5.0,0.2598171830177307,0.1937566548585891,0.6888564825057983,-0.1032005548477172,0.0690075904130935,-9.865647315979004,-0.0001265100389551,-8.701086374287924e-05,-2.9594181665360506,2.9004033929160107,2.4379187437487038,0.407694423284999,14.28,0.04,0.052,0.175,1.0,8
114,8.0,1744993339.4325008,18.0,0.0,-5.0,0.2685052752494812,0.2077490836381912,0.6922811269760132,-0.041423961520195,0.008077697828412,-9.815653800964355,-0.0001124250123523,-1.764302927016581e-05,-2.9592226690308694,3.341620915806038,2.320673121473413,0.4725137438648449,14.28,0.04,0.052,0.175,1.0,9
115,8.0,1744993339.935999,20.0,0.0,-5.0,0.23732291162014,0.2015674710273742,0.6796891689300537,-0.0853163823485374,-0.013847523368895,-9.743571281433104,-0.0006207669019629,0.0001237852290802,-2.959268639664073,2.889035913951099,2.244772679442903,0.4947216163687374,14.28,0.04,0.052,0.175,1.0,10
116,8.0,1744993340.4394238,18.0,0.0,-5.0,0.1128002777695655,0.1126496568322181,0.542561948299408,-0.0740367397665977,-0.013163617812097,-9.810604095458984,-0.0045850609226352,0.0024570422452416,-2.959672807760941,3.487919681045161,1.7560690222430595,0.4809835114380483,14.28,0.04,0.052,0.175,1.0,11
117,8.0,1744993340.9449134,16.0,0.0,-5.0,0.001813766430132,0.0237369127571582,0.3916713297367096,0.112037107348442,-0.0254473816603422,-9.86396312713623,-0.0068167498934205,0.0040138863524087,-2.959898324678893,3.3767577003275075,1.7407435462782137,0.5259930351696421,14.28,0.04,0.052,0.175,1.0,12
118,8.0,1744993341.4500234,14.0,0.0,-5.0,-0.0682555213570594,-0.0350558161735534,0.2546984553337097,0.0884108990430831,0.0215900801122188,-9.859759330749512,-0.0071750188966955,0.0045887066458326,-2.960047555576089,2.9694407072189763,1.8626563546807728,0.4864441964920563,14.28,0.04,0.052,0.175,1.0,13
119,8.0,1744993341.9563477,12.0,0.0,-5.0,-0.0990256145596504,-0.0641394257545471,0.1588080823421478,-0.1045161262154579,-0.0096697928383946,-9.71282958984375,-0.0065291623993629,0.0046577328436969,-2.960067558183144,2.969437929855713,2.387501848916316,0.5143143811763207,14.28,0.04,0.052,0.175,1.0,14
120,8.0,1744993342.4599724,10.0,0.0,-5.0,-0.1044095084071159,-0.0732756704092025,0.0892599746584892,0.0260917302221059,0.0252378955483436,-9.719199180603027,-0.0053847484178635,0.0043767020097024,-2.960267631276137,2.8714890669675706,2.268611560030772,0.5277309858588686,14.28,0.04,0.052,0.175,1.0,15
121,8.0,1744993342.963989,8.0,0.0,-5.0,-0.0979921147227287,-0.0729062333703041,0.0391714535653591,0.034700084477663,0.0059459069743752,-9.794943809509276,-0.0040235341441663,0.0039443271497518,-2.96020496198294,2.5596578927364595,1.5905684018369994,0.5748581532653098,14.28,0.04,0.052,0.175,1.0,16
122,8.0,1744993343.471079,6.0,0.0,-5.0,-0.0842437967658042,-0.0665519833564758,0.0024444689042866,-0.0161699783056974,-0.0088525218889117,-9.85339069366455,-0.002589334171744,0.0035391422753942,-2.960142484498899,3.4975316604149747,1.915551367598838,0.5206610624288154,14.28,0.04,0.052,0.175,1.0,17
123,8.0,1744993343.9748056,4.0,0.0,-5.0,-0.0662916675209999,-0.0550343692302703,-0.020359618589282,0.0108414525166153,0.0432242304086685,-9.744428634643556,-0.0013728968550737,0.0030858909579199,-2.959779622084541,2.9272560060227013,1.793409237081669,0.4437708175617544,14.28,0.04,0.052,0.175,1.0,18
124,8.0,1744993344.4807203,2.0,0.0,-5.0,-0.0499119609594345,-0.0439928136765956,-0.0340920127928257,-0.0101564517244696,0.0204514414072036,-9.70479965209961,-0.0002320382322709,0.0026470662886923,-2.95973909456455,2.667362906997449,2.291623619225136,0.5857783506356391,14.28,0.04,0.052,0.175,1.0,19
125,8.0,1744993344.9854808,0.0,0.0,-5.0,-0.0336477868258953,-0.0330663844943046,-0.0423725470900535,-0.003418201347813,0.0591177605092525,-9.81563949584961,0.0007521339017547,0.0023864216399561,-2.9595123445577043,3.057928122482697,2.4442301734349656,0.5561068391126163,14.28,0.04,0.052,0.175,1.0,20
126,9.0,1744993549.870553,0.0213712751865386,0.0252858214080333,-1.9225387573242188,0.0064205238595604,0.0015573638956993,-0.0018929532961919,-0.0516173988580703,0.0121969357132911,-9.76262664794922,-0.0034234669268484,0.0062987626068027,-3.0134909878528355,2.8780822658372163,2.201339547253757,0.5346063437873002,7.13,0.31,0.432,0.196,1.0,0
127,9.0,1744993550.3743055,0.0265644211322069,0.0243909787386655,-1.9227066040039065,0.0045024985447525,-0.0012565220240503,-0.0039408700540661,-0.0390483513474464,0.0199810769408941,-9.740436553955078,-0.0045321802509214,0.0046547169315971,-3.0144125047629013,2.834371553544882,1.833321740672651,0.5539509254554886,7.13,0.31,0.432,0.196,1.0,1
128,9.0,1744993550.8784678,4.0,0.0,-5.0,-0.0068206959404051,-0.0003763995191548,-0.004711618181318,-0.0867968723177909,-0.0104440320283174,-9.781556129455566,-0.0031119302183398,0.0052077138651468,-3.0139256718640275,2.5129088623314657,1.8354687542405057,0.5298919083612914,7.13,0.31,0.432,0.196,1.0,2
129,9.0,1744993552.3812363,6.0,0.0,-5.0,-0.0027818591333925,0.0008139403653331,-0.0015895647229626,-0.0541947446763515,0.001464907079935,-9.823185920715332,-0.0042150891538943,0.0055495581478316,-3.0132726267637984,3.1257906976407237,2.016522793685797,0.566804950693071,7.13,0.31,0.432,0.196,1.0,3
130,9.0,1744993552.8869936,8.0,0.0,-5.0,0.0010144179686903,-0.0001581271935719,-0.0018783871782943,-0.0906698703765869,-0.0187950432300567,-9.770289421081545,-0.0044365650969545,0.0056196371281797,-3.013491967945217,3.357801049384402,2.0943372120284165,0.5742285783147016,7.13,0.31,0.432,0.196,1.0,4
131,9.0,1744993553.3909078,10.0,0.0,-5.0,-0.0012990235118195,0.0020366308744996,-0.0013625572901219,-0.0900611653923988,0.0164141058921813,-9.820064544677734,-0.0028514298491267,0.0058562817218188,-3.0136269240090963,2.937953685429016,2.1989193943961345,0.5649020318526308,7.13,0.31,0.432,0.196,1.0,5
132,9.0,1744993553.8940682,12.0,0.0,-5.0,0.0044270073994994,0.0014470253372564,-0.0085956966504454,-0.0351290367543697,-0.0287603698670864,-9.85748291015625,-0.002955617261828,0.0058844553684816,-3.0134263943653408,3.315644136986875,2.10944190712307,0.4545417937400417,7.13,0.31,0.432,0.196,1.0,6
133,9.0,1744993554.3981462,14.0,0.0,-5.0,0.0056767798960208,0.0018214433221146,-0.0072526200674474,-0.020543523132801,0.0503387972712516,-9.813822746276855,-0.0027669114324199,0.0064874684640258,-3.013290767614371,3.1742220863989994,2.431281059779673,0.4930568872113542,7.13,0.31,0.432,0.196,1.0,7
134,9.0,1744993554.9043112,16.0,0.0,-5.0,0.0029125865548849,-0.0006696754717268,-0.0050350972451269,-0.0795767307281494,-0.0140954591333866,-9.838802337646484,-0.0019269814842164,0.0063017702332801,-3.013563039871277,2.515934512165722,2.176410975998567,0.5493675093214453,7.13,0.31,0.432,0.196,1.0,8
135,9.0,1744993555.4084997,18.0,0.0,-5.0,0.0121806133538484,-0.0056205005384981,-0.0038359109312295,-0.0041985027492046,0.0167511869221925,-9.85952377319336,-0.0031482725664236,0.0056123029525189,-3.013624796959181,3.194042424909466,1.798205835629596,0.5013717472272675,7.13,0.31,0.432,0.196,1.0,9
136,9.0,1744993555.913723,20.0,0.0,-5.0,0.0088903158903121,-0.0073478152044117,-0.0031612375751137,-0.0418013110756874,-0.0156281758099794,-9.815126419067385,-0.0032665941969757,0.0048201549036921,-3.0128916493754336,2.8094746903341195,1.6086443308542058,0.5552268169727673,7.13,0.31,0.432,0.196,1.0,10
137,9.0,1744993556.4186106,18.0,0.0,-5.0,0.0059172506444156,-0.0069913011975586,-0.0041687977500259,-0.10319834202528,-0.0080550592392683,-9.803333282470703,-0.0037499590816982,0.0049557226617008,-3.012852079763817,2.824190835030296,1.7319626476538192,0.5319761447911369,7.13,0.31,0.432,0.196,1.0,11
138,9.0,1744993556.92314,16.0,0.0,-5.0,0.0082233343273401,-0.0085817845538258,-0.0073228273540735,-0.047847993671894,-0.0425251722335815,-9.849203109741213,-0.0053199102695637,0.0037760151071881,-3.0130744876611524,3.1855608946005662,1.5982699704434138,0.4227516875895734,7.13,0.31,0.432,0.196,1.0,12
139,9.0,1744993557.4284742,14.0,0.0,-5.0,0.0003165511297993,-0.0046591702848672,-0.0071535729803144,-0.0658492147922515,-0.0357681177556514,-9.836623191833496,-0.0049549744858056,0.0036125235435903,-3.013513001702112,2.821103169346044,1.5655623826940706,0.450109664044175,7.13,0.31,0.432,0.196,1.0,13
140,9.0,1744993557.9364662,12.0,0.0,-5.0,-0.0061324345879256,0.0031062867492437,-0.0028397666756063,0.0124668553471565,0.0117606669664382,-9.709080696105955,-0.0051101135171009,0.0038950078817151,-3.013501537340429,3.0732895209938893,2.167824525620837,0.4899732961700794,7.13,0.31,0.432,0.196,1.0,14
141,9.0,1744993558.445452,10.0,0.0,-5.0,-0.0135978031903505,0.0048070158809423,0.0016622913535684,-0.1017049551010131,-0.0704120546579361,-9.826865196228027,-0.0037203469083248,0.0044099095502518,-3.013589251425897,2.694842313818767,1.949104224382325,0.5505942006824104,7.13,0.31,0.432,0.196,1.0,15
142,9.0,1744993558.952958,8.0,0.0,-5.0,-0.0111448345705866,0.0066681178286671,-0.0001307316706515,-0.076444074511528,0.0031187422573566,-9.763833999633787,-0.0043054188826511,0.0049604434214875,-3.0136834391666096,2.983161673169672,2.10028727030443,0.4339136179970082,7.13,0.31,0.432,0.196,1.0,16
143,9.0,1744993559.4570942,6.0,0.0,-5.0,-0.0060657314024865,0.0050197597593069,-0.0002887174196075,-0.0932505428791046,0.0185812041163444,-9.841789245605469,-0.0050234588729602,0.0038599196250416,-3.012996297228772,3.3646399212814613,1.7663090906315912,0.4144211976164561,7.13,0.31,0.432,0.196,1.0,17
144,9.0,1744993559.968724,4.0,0.0,-5.0,-0.0128374379128217,0.0114800278097391,0.0035614618100225,-0.0920415148139,-0.0816978365182876,-9.836766242980955,-0.0035387572325454,0.0068236846718675,-3.0132645317204827,2.8058252261933263,2.3797958768447858,0.5273741270346748,7.13,0.31,0.432,0.196,1.0,18
145,9.0,1744993560.476297,0.0213314164429903,0.0260525662451982,-1.930946350097656,-0.0103742759674787,0.0084540741518139,0.0044136350043118,-0.0548567399382591,0.0229826457798481,-9.813907623291016,-0.0027631047483376,0.0074321111963622,-3.01353249936614,2.914068696246258,2.382588720630014,0.5308520317264002,7.13,0.31,0.432,0.196,1.0,19
146,9.0,1744993560.9818327,0.0184279736131429,0.0302873533219099,-1.9307403564453125,-0.0041814479045569,0.0002476146037224,0.0032758747693151,-0.0281919501721858,-0.0365639254450798,-9.795979499816896,-0.0032168903969776,0.0070055137289625,-3.0133417641922446,3.131781886705164,2.1233075425839303,0.519498033890748,7.13,0.31,0.432,0.196,1.0,20
147,10.0,1744993562.5371966,0.0161523111164569,0.0358355045318603,-1.9198455810546875,0.0080796377733349,-0.0087348753586411,0.0004853813152294,-0.1560976505279541,-0.0165891163051128,-9.80322265625,-0.0046272625235495,0.0066571181235377,-3.0131033455525986,3.487816369715855,2.3262162154539485,0.5693273021102133,13.87,0.1,0.488,0.026,1.0,0
148,10.0,1744993563.0411336,0.0159022621810436,0.0321366377174854,-1.9171295166015625,0.0054860557429492,-0.0120317107066512,-0.0072492556646466,-0.0678399950265884,-0.0290249083191156,-9.767105102539062,-0.0040431601260456,0.006161374895273,-3.014275419453914,3.288771797859452,2.18286728936166,0.50502267761027,13.87,0.1,0.488,0.026,1.0,1
149,10.0,1744993563.5444407,4.0,0.0,-5.0,0.0046002301387488,-0.0089649660512804,-0.0106097040697932,-0.0185723565518856,-0.0729547441005706,-9.820887565612791,-0.0036670679280366,0.0059737405037341,-3.014192930308469,3.33242410434348,2.37743396316123,0.4887084992967078,13.87,0.1,0.488,0.026,1.0,2
150,10.0,1744993564.0502176,6.0,0.0,-5.0,0.0068603651598095,-0.0029572146013379,-0.0101513573899865,-0.0066689513623714,-0.0364898964762687,-9.836522102355955,-0.0041551454617069,0.0057735424895223,-3.013206593748472,3.1536198467107304,2.408578958543425,0.4916243125784422,13.87,0.1,0.488,0.026,1.0,3
151,10.0,1744993564.55505,8.0,0.0,-5.0,0.0003119540633633,-0.0013856010045856,-0.009524549357593,-0.08374984562397,-0.0239645708352327,-9.856446266174316,-0.0038158546596562,0.0054504863775808,-3.0130127663681465,2.6141774594234564,2.4738002313147494,0.4459258416565086,13.87,0.1,0.488,0.026,1.0,4
152,10.0,1744993565.0598962,10.0,0.0,-5.0,-0.0069402884691953,0.0013563354732468,-0.007094994187355,-0.0252985451370477,0.0149769745767116,-9.80650520324707,-0.0030091807043786,0.0049699830478162,-3.013214459102953,2.536425269908261,2.489559376825665,0.5958236837853453,13.87,0.1,0.488,0.026,1.0,5
153,10.0,1744993565.5672936,12.0,0.0,-5.0,-0.006333015859127,0.004100170917809,-0.0083527378737926,-0.0071346461772918,-0.0113924797624349,-9.873808860778809,-0.0032551924004798,0.00445498355404,-3.013714667067529,2.8578473104384043,2.2000973460766424,0.4583572240509546,13.87,0.1,0.488,0.026,1.0,6
154,10.0,1744993566.0741124,14.0,0.0,-5.0,0.0004193043278064,0.0070390128530561,-0.0115852560847997,-0.1261463463306427,-0.0493141748011112,-9.803385734558104,-0.0050847564653217,0.0045840156047304,-3.0136168923978834,3.1655385436788683,2.190019083908549,0.4657068273714861,13.87,0.1,0.488,0.026,1.0,7
155,10.0,1744993566.579038,16.0,0.0,-5.0,-0.0083197820931673,0.010417828336358,-0.0061272522434592,-0.0399923361837863,0.0157375670969486,-9.751615524291992,-0.0037471760167569,0.0047555474422066,-3.0129841415682925,2.807305324761062,2.381162800452336,0.5241517402130358,13.87,0.1,0.488,0.026,1.0,8
156,10.0,1744993567.08263,18.0,0.0,-5.0,-0.0124287959188222,0.0120430504903197,0.0022380186710506,-0.0520336776971817,-0.0209433827549219,-9.732880592346191,-0.0024595879396521,0.0053514897930526,-3.0131377110503688,2.718751109978337,2.3604677054070327,0.5855127009322303,13.87,0.1,0.488,0.026,1.0,9
157,10.0,1744993567.5868423,20.0,0.0,-5.0,0.0012002963339909,0.0069681284949183,0.0003998138417955,-0.1072304397821426,0.0039337314665317,-9.813718795776367,-0.0042482310241084,0.0057603453640255,-3.0137835520437117,3.486817810138964,1.6711347966158028,0.5791273598556625,13.87,0.1,0.488,0.026,1.0,10
158,10.0,1744993568.090756,18.0,0.0,-5.0,-0.0003440211585257,0.0072285425849258,0.0003707600699272,-0.1198009252548217,-0.0803605616092681,-9.862117767333984,-0.0030987837413051,0.0074605970576179,-3.013356574881778,3.074742389852916,2.159291526050802,0.5325935385435537,13.87,0.1,0.488,0.026,1.0,11
159,10.0,1744993568.5960295,16.0,0.0,-5.0,0.0061440216377377,-0.0007672743522562,0.0009531131363473,-0.0412249863147735,-0.0052126869559288,-9.814697265625,-0.0042651821073601,0.0077075699397717,-3.01265657829279,3.235367825770464,1.8821330435938544,0.5584210075747872,13.87,0.1,0.488,0.026,1.0,12
160,10.0,1744993569.0998485,14.0,0.0,-5.0,0.0045413905754685,-0.0052728331647813,-0.0018502324819564,-0.0596491917967796,-0.0816801935434341,-9.835965156555176,-0.0037427272663883,0.008033700992418,-3.013295519192503,3.2165769093709926,2.4358675677177906,0.5868711619518271,13.87,0.1,0.488,0.026,1.0,13
161,10.0,1744993569.6032546,12.0,0.0,-5.0,-0.0006822098512202,-0.0179882440716028,-0.0075072557665407,-0.1627175360918045,-0.0522826872766017,-9.830100059509276,-0.0018532144108304,0.005970195898157,-3.0138129158286544,2.54541695305344,1.7058982668847933,0.5485862819262216,13.87,0.1,0.488,0.026,1.0,14
162,10.0,1744993570.1063805,10.0,0.0,-5.0,0.0016792551614344,-0.015173359774053,-0.0147067736834287,-0.1000746712088584,-0.0816601067781448,-9.85660171508789,-0.0012084442688679,0.0061027025052914,-3.0133150874421157,2.738699911781364,2.1091065766506003,0.4120922522970335,13.87,0.1,0.488,0.026,1.0,15
163,10.0,1744993570.609758,8.0,0.0,-5.0,0.0068537844344973,-0.0163529552519321,-0.0124908229336142,0.0328060090541839,0.0804199650883674,-9.799583435058594,-0.0013103934285893,0.0044551195398372,-3.013589969154255,2.799639125612305,1.6234719828390571,0.4401353520518831,13.87,0.1,0.488,0.026,1.0,16
164,10.0,1744993571.113111,6.0,0.0,-5.0,0.0159764494746923,-0.0139875756576657,-0.008482432924211,-0.0247889943420887,-0.0728103891015052,-9.912967681884766,-0.0029336065217623,0.0024016830705437,-3.014100910148147,3.4791085103490094,1.5703813331546757,0.5082030035652817,13.87,0.1,0.488,0.026,1.0,17
165,10.0,1744993571.6179805,4.0,0.0,-5.0,0.0190410949289798,-0.0003357598034199,-0.0106493970379233,-2.770870923995972e-05,-0.0174684580415487,-9.732806205749512,-0.0036346062183089,0.0024686619385176,-3.0148032972096126,3.461817723020848,2.3553291684431565,0.4432913568667017,13.87,0.1,0.488,0.026,1.0,18
166,10.0,1744993572.1225498,0.0200862549245357,-0.007041351404041,-1.9193267822265625,0.0233564469963312,0.0086855739355087,-0.0035762980114668,-0.146266371011734,0.0570215135812759,-9.826848030090332,-0.0063459793439398,0.0014638801969971,-3.0157414591958545,3.4614023212381904,1.7419548904285538,0.5760896322647797,13.87,0.1,0.488,0.026,1.0,19
167,10.0,1744993572.6275694,0.0338818170130252,-0.0083282636478543,-1.920372009277344,0.008803054690361,0.0148318335413932,-0.0081451209262013,-0.0554589219391346,0.0073960162699222,-9.820547103881836,-0.0065163137271837,0.0018779385194741,-3.0161672749215698,2.801213310477288,1.6947751274859453,0.4479103491018577,13.87,0.1,0.488,0.026,1.0,20
168,11.0,1744993598.0577867,-0.0656773075461387,-0.0163020733743906,-4.96588134765625,0.0230579506605863,0.0118261016905307,-0.4001007378101349,0.0452249273657798,-0.0650032684206962,-8.625965118408203,0.0057151154418421,0.0026244512578006,-3.0127405079061926,2.914030025314833,1.811294693173343,0.4579573177745862,9.63,0.18,0.492,0.228,1.0,0
169,11.0,1744993599.529291,2.390627145767212,0.0297736339271068,-4.8842315673828125,1.0457401275634766,0.0430877059698104,-0.0674495622515678,-0.0370974540710449,0.0222298838198184,-10.379156112670898,-0.2585183967884764,-0.0266006522059939,-2.9941028507618337,3.2788551659311995,1.7262151341468757,0.49969788826295,9.63,0.18,0.492,0.228,1.0,1
170,11.0,1744993600.9144645,3.72105073928833,0.0396639853715896,-5.017021179199219,0.2857927978038788,-0.0544634237885475,-0.0878853350877761,-0.0997774824500083,0.033215194940567,-9.718520164489746,-0.06269763062931,-0.0049817969832109,-2.977571849006261,2.63563096692812,1.945533669287422,0.4478124503557646,9.63,0.18,0.492,0.228,1.0,2
171,11.0,1744993603.6236663,5.990694999694824,-0.0296679325401783,-5.016609191894531,0.5328841805458069,0.0470394752919673,0.0327864848077297,-0.0773475021123886,-0.0277544185519218,-9.85293197631836,-0.1108393341797557,-0.0142126508652381,-2.966005441375418,3.2393539353599405,2.1725214131841435,0.5381889708191515,9.63,0.18,0.492,0.228,1.0,3
172,11.0,1744993605.8289857,7.876947402954102,0.0321106985211372,-4.996070861816406,0.510851263999939,-0.0234681628644466,-0.0018268885323777,-0.02763032913208,-0.0139713967218995,-9.898910522460938,-0.0814630867516353,-0.0080120055071085,-2.966912634285221,3.179011377253486,1.8524594314772624,0.4554203465862543,9.63,0.18,0.492,0.228,1.0,4
173,11.0,1744993608.0574863,9.965880393981934,-0.0075168060138821,-5.00347900390625,0.6020181775093079,-0.003117972286418,0.0104613611474633,0.069461278617382,-0.0065049226395785,-9.81463623046875,-0.0991861701378973,-0.0147013584950054,-2.970252895856682,2.8193230146452377,1.7379432568469673,0.4674397471146959,9.63,0.18,0.492,0.228,1.0,5
174,11.0,1744993609.5912986,12.200522422790527,0.007360144983977,-4.918617248535156,0.7001312375068665,0.0267044100910425,-0.1079715341329574,-0.0194798521697521,-0.0440857596695423,-9.945210456848145,-0.1858198824250961,-0.0212937166687266,-2.9919117889992086,3.447706288283356,1.8834010915020265,0.4545270584776141,9.63,0.18,0.492,0.228,1.0,6
175,11.0,1744993611.6370804,13.698175430297852,0.0028944520745426,-5.048774719238281,0.3036368489265442,-0.0152533315122127,0.0097509827464818,-0.0316585525870323,0.027261696755886,-9.80713176727295,-0.042368394820964,-0.0043711841791806,-2.965777473426108,3.0282169861939647,1.9065202074443437,0.4233793579699819,9.63,0.18,0.492,0.228,1.0,7
176,11.0,1744993614.0942,16.054903030395508,0.0181012153625488,-5.000938415527344,0.5825225710868835,0.0054392055608332,0.0238742101937532,-0.0372003838419914,-0.0232602655887603,-9.884276390075684,-0.1207117009701783,-0.0136401176894644,-2.957019903282976,3.159177612889679,2.3892883669461886,0.5344821442995693,9.63,0.18,0.492,0.228,1.0,8
177,11.0,1744993615.2698743,18.809579849243164,0.079563669860363,-4.761909484863281,1.453513264656067,0.0492261052131652,-0.1465146243572235,-0.0068615525960922,-0.0343927182257175,-10.992488861083984,-0.4253221703053169,-0.0519939893105304,-2.954874600014729,3.172385532129705,2.155908388939898,0.4193821192629938,9.63,0.18,0.492,0.228,1.0,9
178,11.0,1744993616.2590663,19.887680053710938,0.1243927851319313,-4.940353393554688,0.0886646881699562,-0.0838243961334228,-0.2176045626401901,-0.1118301525712013,-0.0335403718054294,-9.712642669677734,-0.1240259778446165,-0.0053243140130203,-2.9454685070198425,3.102440888246045,2.4586500886926754,0.5835324224491338,9.63,0.18,0.492,0.228,1.0,10
179,11.0,1744993617.9406652,17.48189926147461,-0.1354696154594421,-5.088623046875,-1.2840909957885742,-0.0342010036110878,-0.0194902271032333,-0.1518874764442443,-0.0879582017660141,-9.93783473968506,0.1708988573869784,0.020444200492244,-2.910586026131235,3.3755316298015,1.9906797914921208,0.4023434912648475,9.63,0.18,0.492,0.228,1.0,11
180,11.0,1744993618.9904788,15.665305137634276,-0.1416184902191162,-5.076950073242188,-0.991605579853058,0.1156000941991806,0.0172520633786916,-0.1421896666288375,-0.0403509773313999,-9.864519119262695,0.1322005664387261,0.0290437092955295,-2.906483696244917,3.4925274461038,1.8990786241570836,0.4668172771777701,9.63,0.18,0.492,0.228,1.0,12
181,11.0,1744993620.4621935,14.042421340942385,0.0707750096917152,-5.035690307617188,-0.8262568116188049,0.0413273721933364,0.0149429785087704,-0.0563621781766414,0.0441434755921363,-9.903478622436523,0.0702227013005842,0.0418568964942871,-2.900048391963649,3.030389799370622,1.5560380644610616,0.5865499449785887,9.63,0.18,0.492,0.228,1.0,13
182,11.0,1744993622.439898,11.982773780822754,0.0112746749073266,-5.001091003417969,-0.7996506094932556,-0.0884519219398498,-0.0271197464317083,-0.1263067126274109,0.0138349588960409,-9.840877532958984,0.0961385584167131,0.0216031142222717,-2.895716029592465,2.8313345096881943,2.3136708029873403,0.5537358121241949,9.63,0.18,0.492,0.228,1.0,14
183,11.0,1744993624.3334832,9.98578643798828,-0.0995552763342857,-5.008125305175781,-0.715370774269104,0.0655524805188179,-0.0115259299054741,-0.0506114773452281,-0.013138473033905,-9.81696319580078,0.0944199547008067,0.0174344523534384,-2.8985847840155765,2.544840292908427,1.936798263085937,0.5533154225723615,9.63,0.18,0.492,0.228,1.0,15
184,11.0,1744993626.3078864,8.015220642089844,0.0318190157413482,-5.005889892578125,-0.6755086779594421,0.0190743152052164,-0.0138322412967681,-0.1836336851119995,0.027936341241002,-9.812663078308104,0.0861183634355698,0.0360091159855359,-2.899548635151461,2.725145754038455,1.8791430453752085,0.5633815101063051,9.63,0.18,0.492,0.228,1.0,16
185,11.0,1744993628.304,6.03005313873291,-0.0154319554567337,-5.005439758300781,-0.667080819606781,-0.0272209718823432,-0.0122878747060894,-0.1383249461650848,0.0007648165337741,-9.903353691101074,0.0944520288466441,0.022061145869194,-2.9014169108916423,2.6875286254018667,1.689190626622855,0.522611423156448,9.63,0.18,0.492,0.228,1.0,17
186,11.0,1744993630.3417792,4.036271572113037,-0.0417819023132324,-5.003273010253906,-0.628698468208313,0.0408425480127334,-0.0129346502944827,-0.0732899531722068,-0.0093965325504541,-9.79637622833252,0.0909645285496729,0.0236020833664979,-2.903909740847934,3.342989912672196,1.7497643107069505,0.5319237850174291,9.63,0.18,0.492,0.228,1.0,18
187,11.0,1744993632.4012394,2.041583299636841,0.0176293645054101,-5.001319885253906,-0.6248003244400024,0.0078587373718619,-0.0178442597389221,-0.0777929350733757,-0.0315776839852333,-9.815848350524902,0.0867269142193973,0.0271719657595658,-2.905454212512779,3.3081842820162146,2.2363805291854364,0.5206823833870587,9.63,0.18,0.492,0.228,1.0,19
188,11.0,1744993634.4613652,0.0174732487648725,-0.0072768311947584,-5.002677917480469,-0.6210929751396179,-0.0144814392551779,-0.0129495626315474,-0.1338368654251098,-0.0657268017530441,-9.911885261535645,0.0958754077770228,0.0242241331575577,-2.9077590423467985,2.6227113661545447,1.747169700015732,0.5880779299476331,9.63,0.18,0.492,0.228,1.0,20
189,12.0,1744993640.0322688,-0.2830236852169037,0.0452913790941238,-5.028854370117188,-0.0843657180666923,-0.0211221575736999,-0.4008670747280121,-0.0668970793485641,-0.070412665605545,-8.579194068908691,0.0599323799001314,0.0215509645685385,-2.908250491429443,2.676022087966711,2.415436808358882,0.4410659728781408,14.36,0.22,0.271,0.307,1.0,0
190,12.0,1744993642.301187,2.2218868732452397,-0.002173313871026,-4.9764251708984375,0.7877323627471924,-0.0043668807484209,0.1258809268474578,-0.0250019580125808,0.0027398262172937,-10.14423656463623,-0.1480777052982099,-0.0318549105147026,-2.914181847433806,3.444814132892557,2.1040769449224506,0.5482778252464544,14.36,0.22,0.271,0.307,1.0,1
191,12.0,1744993644.004444,3.883280992507935,-0.0116527844220399,-4.9196319580078125,0.5192345380783081,0.0127714946866035,-0.0800264328718185,-0.0928917229175567,0.0342979133129119,-9.837162971496582,-0.0650637749821179,-0.0124126807093627,-2.9160732221430967,3.239526042828886,2.153750932835292,0.5385150498364215,14.36,0.22,0.271,0.307,1.0,2
192,12.0,1744993646.2741072,5.972245693206787,0.0332220643758773,-4.998016357421875,0.6324909329414368,1.2250558938831093e-05,0.0112877869978547,-0.0361431054770946,-0.0250271055847406,-9.826101303100586,-0.0924024257456163,-0.0126420954085704,-2.9174646320656707,2.866150862877398,1.9556880141129185,0.4829526901066066,14.36,0.22,0.271,0.307,1.0,3
193,12.0,1744993648.44051,7.9866838455200195,0.032659389078617,-4.993705749511719,0.7222974896430969,-0.0274294149130582,-0.0017841922817751,-0.0118311773985624,-0.0745103284716606,-9.880134582519531,-0.0950535751764593,-0.0168534388653448,-2.9226208919950776,2.8155028046705866,2.424872367785348,0.5838229522259142,14.36,0.22,0.271,0.307,1.0,4
194,12.0,1744993650.4154313,9.947344779968262,-0.0097448294982314,-4.999259948730469,0.6093683242797852,-0.0040682340040802,0.0076844943687319,-0.0280875526368618,0.0652231201529502,-9.788996696472168,-0.0834554553613657,-0.0173528312145631,-2.92358935465489,2.715046245800375,1.9519593189851152,0.5549664532658978,14.36,0.22,0.271,0.307,1.0,5
195,12.0,1744993652.5165713,11.940235137939451,0.007877460680902,-5.0013580322265625,0.6182838678359985,0.0082179363816976,0.0090480213984847,-0.0404582880437374,-0.0021113846451044,-9.802595138549805,-0.0843652820090533,-0.0122201209532047,-2.9253579351434538,2.556388388754641,2.1273098814350546,0.4476788280152862,14.36,0.22,0.271,0.307,1.0,6
196,12.0,1744993654.5736864,13.95863914489746,0.0344206504523754,-4.994842529296875,0.6294214725494385,-0.0209302380681037,0.012266481295228,-0.132884606719017,-0.0302216075360775,-9.88225269317627,-0.0901670805883449,-0.0118091350845058,-2.927224512706951,3.326894059832742,2.3463546908320745,0.4858278785801677,14.36,0.22,0.271,0.307,1.0,7
197,12.0,1744993656.6312876,15.95605754852295,0.0044233221560716,-4.994438171386719,0.6073100566864014,-0.0207326617091894,0.009121767245233,0.0353298857808113,-0.0069225467741489,-9.8768310546875,-0.0863945989927895,-0.0162156064759551,-2.929863831179634,3.124176811408556,2.11854538559244,0.5396437260712051,14.36,0.22,0.271,0.307,1.0,8
198,12.0,1744993658.7129366,17.95450782775879,-0.0102241346612572,-4.995643615722656,0.6063974499702454,0.0102374022826552,0.0153270876035094,-0.1599201261997223,0.0021010395139455,-9.853394508361816,-0.0852355410279042,-0.0140155658369357,-2.9321089710561687,3.32916067102931,2.08736051508233,0.5119162041953041,14.36,0.22,0.271,0.307,1.0,9
199,12.0,1744993660.769692,19.95747947692871,0.0209569074213504,-4.994346618652344,0.6177761554718018,-0.0067540248855948,0.0094607984647154,-0.0296531468629837,-0.039707139134407,-9.84725570678711,-0.0895485551729527,-0.0118861764456163,-2.9345194238051566,3.45536769437624,1.9047589204966648,0.5133070297066221,14.36,0.22,0.271,0.307,1.0,10
200,12.0,1744993663.1031568,17.626893997192383,-0.0089324759319424,-4.973213195800781,-0.9570286870002748,-0.0062982700765132,-0.0751442536711692,-0.1419879496097564,-0.0095688803121447,-9.967357635498049,0.1750722911765556,0.0395375317334987,-2.9326635591079717,2.8396207147498416,2.097014316606733,0.5993359004462011,14.36,0.22,0.271,0.307,1.0,11
201,12.0,1744993664.403601,16.040985107421875,-0.0189311429858207,-5.020805358886719,-0.6735002398490906,0.0116707682609558,-0.018879359588027,-0.1379829347133636,0.0094480700790882,-9.807498931884766,0.0896775606196892,0.0241309969342917,-2.938053403140761,3.260687921294763,1.8394231875085123,0.5983303162837342,14.36,0.22,0.271,0.307,1.0,12
202,12.0,1744993666.5507312,14.077485084533691,-0.006327056325972,-5.0141448974609375,-0.6598998308181763,0.0059005091898143,-0.0022345627658069,-0.0694814026355743,-0.0321997329592704,-9.751623153686523,0.0858286102174545,0.0219416250133204,-2.9395295334316827,2.68337564606677,1.9967532603415168,0.576304519809396,14.36,0.22,0.271,0.307,1.0,13
203,12.0,1744993668.6340318,12.036094665527344,-0.0036225554067641,-5.004905700683594,-0.6579777598381042,0.0026268155779689,-0.0131521439179778,-0.0169190019369125,0.0273169018328189,-9.81166172027588,0.093061463410815,0.0235498817215371,-2.940196898992941,2.659849512247142,2.32593187042937,0.5591640253530732,14.36,0.22,0.271,0.307,1.0,14
204,12.0,1744993670.6739683,10.043376922607422,-0.0250623058527708,-5.007865905761719,-0.6299170851707458,0.0073870732448995,-0.0142299961298704,-0.2044776380062103,-0.0245360657572746,-9.874794960021973,0.0918204462494076,0.0193606284614863,-2.9422456516455693,3.201285811651497,2.273810540803024,0.575606194166835,14.36,0.22,0.271,0.307,1.0,15
205,12.0,1744993672.756137,8.041927337646484,-0.0279812514781951,-5.005126953125,-0.6250742673873901,0.013759110122919,-0.0103246234357357,-0.1222421377897262,-0.0846839323639869,-9.84119701385498,0.0930342879483231,0.0172572253230513,-2.9446901428735583,3.166446395298523,2.105993601475051,0.5530398736438562,14.36,0.22,0.271,0.307,1.0,16
206,12.0,1744993674.8562317,6.01090669631958,0.008193427696824,-5.002975463867188,-0.5991170406341553,0.006457099225372,-0.0160962641239166,-0.1315649002790451,-0.0193844363093376,-9.790088653564451,0.0935143031987604,0.0259644071468747,-2.946201401121165,2.9069461799404444,2.0020046447768083,0.5709181010104017,14.36,0.22,0.271,0.307,1.0,17
207,12.0,1744993676.9139962,4.064146995544434,0.0020878638606518,-5.009780883789063,-0.6227564811706543,-0.0106958569958806,-0.0086920643225312,-0.0997841879725456,-0.0063343034125864,-9.82164192199707,0.0890361240725614,0.0208495432433838,-2.947568974069013,3.111321552213957,1.969417793403199,0.465380352306483,14.36,0.22,0.271,0.307,1.0,18
208,12.0,1744993678.9755185,2.0308547019958496,-0.0283679403364658,-5.003135681152344,-0.6323455572128296,0.0160103477537632,-0.013419940136373,-0.0889257490634918,0.0251401886343956,-9.92453670501709,0.0977080953739095,0.0211270745257435,-2.9493049212047526,2.51994270421264,1.92601278090517,0.5401280948432046,14.36,0.22,0.271,0.307,1.0,19
209,12.0,1744993681.060287,0.0448607243597507,-0.0013344078324735,-5.0012969970703125,-0.5912704467773438,0.0165419243276119,-0.0146031910553574,-0.1155790165066719,-0.0275448616594076,-9.839762687683104,0.0890820347811675,0.0239633756196866,-2.951601793853683,3.2723169700815444,2.2460679726914003,0.516094095559846,14.36,0.22,0.271,0.307,1.0,20
210,13.0,1744993708.6531274,-0.2770045697689056,0.1472642719745636,-4.9619903564453125,-0.4352767467498779,0.2371013313531875,-0.4110993444919586,-0.147633820772171,0.032206505537033,-8.687005043029785,0.098523351756974,0.0804850448046979,-2.974659488495437,2.769312505501792,2.110194978445096,0.5846200158043252,6.57,0.32,0.252,0.22,1.0,0
211,13.0,1744993711.111635,2.4517247676849365,0.0759670361876487,-4.912773132324219,0.97029846906662,-0.2327402681112289,0.0422053523361682,-0.0056012496352195,-0.0586468987166881,-10.363911628723145,-0.1933298119512244,-0.0416659451858051,-2.966501108377998,3.1986238531768105,1.8498678132763788,0.4533270436256797,6.57,0.32,0.252,0.22,1.0,1
212,13.0,1744993712.418155,3.938739776611328,-0.2497346252202987,-4.892143249511719,0.5360338091850281,0.0205362364649772,-0.1053461953997612,-0.0131344124674797,0.0310873202979564,-9.788310050964355,-0.0704445105709588,-0.0467270479315533,-2.961526974368821,3.1543230783190483,1.6314402066178797,0.4506474806415819,6.57,0.32,0.252,0.22,1.0,2
213,13.0,1744993714.8122137,5.946681499481201,0.1428111642599105,-4.991859436035156,0.6188076138496399,0.0782436579465866,0.0093444949015975,-0.0705126002430915,0.0083466861397027,-9.807021141052246,-0.088160597026315,0.0230209085326401,-2.955494047395232,3.247263903543451,2.271549567905329,0.5313951560907979,6.57,0.32,0.252,0.22,1.0,3
214,13.0,1744993716.8945456,7.97461986541748,0.0118158664554357,-4.992942810058594,0.6269481182098389,-0.1370634287595749,0.0072382763028144,-0.1227915734052658,0.018681276589632,-9.874503135681152,-0.088699917219671,-0.0244390098989536,-2.9560452357189284,3.436540732238539,1.575523627336818,0.4585409247083299,6.57,0.32,0.252,0.22,1.0,4
215,13.0,1744993718.9945092,9.94198989868164,-0.0878549441695213,-4.9909210205078125,0.5799821019172668,0.116814486682415,0.0066513144411146,-0.0722088739275932,-0.0335323326289653,-9.909516334533691,-0.0789931392813194,-0.0096434087604024,-2.953864903685157,2.598982757612794,1.8171667101559408,0.5987155514508843,6.57,0.32,0.252,0.22,1.0,5
216,13.0,1744993721.1162364,11.975458145141602,0.1146739274263382,-4.988296508789063,0.6135026216506958,-0.0433883108198642,0.0024314236361533,-0.1400884091854095,0.0072253793478012,-9.825754165649414,-0.0908901280977441,0.0035256920812706,-2.952669967391487,3.3292930906990987,2.13488263598315,0.4386974420165138,6.57,0.32,0.252,0.22,1.0,6
217,13.0,1744993723.195689,13.956141471862791,-0.031958881765604,-4.988105773925781,0.5837604403495789,-0.0267165396362543,0.0035059992223978,0.0561091676354408,-0.0579989589750766,-9.825233459472656,-0.0790917735893013,-0.0170989436691636,-2.9504478791908246,2.6286406676337326,1.9400885580354343,0.5463486568927364,6.57,0.32,0.252,0.22,1.0,7
218,13.0,1744993725.2951725,15.94337558746338,0.0105517348274588,-4.990882873535156,0.620175302028656,0.0455811582505703,0.0097908983007073,-0.0916225016117096,-0.0809897035360336,-9.885855674743652,-0.0866321629742784,-0.0029135899854073,-2.9480720731201324,3.2026226749989988,1.971131495051391,0.5801013876218151,6.57,0.32,0.252,0.22,1.0,8
219,13.0,1744993727.3974884,17.974620819091797,0.0568599663674831,-4.994270324707031,0.5997949242591858,-0.0398084335029125,0.0030569750815629,-0.0615897327661514,-0.0531001836061477,-9.767024040222168,-0.0891080692258432,-0.0059941714167783,-2.9459850269270937,3.035480137649038,2.4230736835285733,0.4030744779766468,6.57,0.32,0.252,0.22,1.0,9
220,13.0,1744993729.4764838,19.95621681213379,-0.0180261060595512,-4.991233825683594,0.5966864824295044,-0.001231747912243,0.0095073478296399,-0.0389395244419574,-0.0060586337931454,-9.865957260131836,-0.0839002806812879,-0.0132346000695368,-2.94302092207418,3.2176368003329463,1.8787639759674704,0.5772694092741286,6.57,0.32,0.252,0.22,1.0,10
221,13.0,1744993731.828441,17.629732131958008,-0.1243010461330413,-4.96258544921875,-0.9386420845985411,0.0734096840023994,-0.0851941332221031,-0.1239322200417518,-0.0537657104432582,-9.913969993591309,0.17589324064316,0.0313116340902157,-2.93068983961228,3.003943224058502,2.1706611035147203,0.5613336234929771,6.57,0.32,0.252,0.22,1.0,11
222,13.0,1744993733.1539438,16.040122985839844,0.0581961572170257,-5.015480041503906,-0.662789523601532,0.0859829932451248,-0.0254667904227972,-0.1495921313762664,0.0336598455905914,-9.727069854736328,0.086169375428422,0.0453649422218363,-2.927308199427117,2.729601046055389,1.7664536874806207,0.4455665246037181,6.57,0.32,0.252,0.22,1.0,12
223,13.0,1744993735.3638651,14.041912078857422,0.0560669265687465,-5.007415771484375,-0.6061303019523621,-0.1420417875051498,-0.0076748076826334,-0.0614888668060302,0.0259620174765586,-9.792641639709473,0.0858034022901666,0.0188369608173759,-2.9197116862995665,2.721513381427701,1.844933987176235,0.4660881208889977,6.57,0.32,0.252,0.22,1.0,13
224,13.0,1744993737.48466,12.024480819702148,-0.1033648028969764,-5.000205993652344,-0.6492131352424622,0.0690796077251434,-0.0192704014480114,-0.1086345762014389,0.1217276230454444,-9.883623123168944,0.0957368780613503,0.0189327532612244,-2.919823524183244,2.7710815444000576,1.520040933468804,0.5148943300240703,6.57,0.32,0.252,0.22,1.0,14
225,13.0,1744993739.5239956,10.023981094360352,0.0603447668254375,-5.001029968261719,-0.6190373301506042,0.0015206600073724,-0.0165445748716592,-0.1765282154083252,-0.0163696464151144,-9.821246147155762,0.0912010501578561,0.0382940744133067,-2.917060519624711,2.658248994592157,2.374201748713907,0.5701811036060217,6.57,0.32,0.252,0.22,1.0,15
226,13.0,1744993741.5831437,8.052018165588379,-0.0230620745569467,-5.001655578613281,-0.6244983077049255,-0.0470007136464118,-0.0146645838394761,-0.1419399380683899,-0.1203704625368118,-9.78296184539795,0.0932049933075596,0.0178868189952484,-2.9150353506751974,2.6552489365807355,1.5560609771427705,0.513582442901529,6.57,0.32,0.252,0.22,1.0,16
227,13.0,1744993743.6650274,6.042613983154297,-0.042442075908184,-4.9992523193359375,-0.6208347082138062,0.050018947571516,-0.0218591075390577,-0.1385046392679214,-0.0578338094055652,-9.738031387329102,0.0918339112937754,0.0264594258885627,-2.914051387334313,3.267180073872602,2.082469290225061,0.5889652563986599,6.57,0.32,0.252,0.22,1.0,17
228,13.0,1744993745.7436972,4.028439044952393,0.0269413813948631,-5.003288269042969,-0.5918155312538147,-0.017972944304347,-0.0136066041886806,-0.125646024942398,0.0096239671111106,-9.884200096130373,0.0904006000760749,0.0296305993458714,-2.912061106796813,3.199107905119734,1.5000284604318337,0.5006778274842574,6.57,0.32,0.252,0.22,1.0,18
229,13.0,1744993747.8636906,2.039085865020752,-0.0273297522217035,-4.999412536621094,-0.5918818712234497,-0.0030831936746835,-0.0203054342418909,-0.1143083721399307,0.0305518582463264,-9.850488662719728,0.0900479028468937,0.0224162418185101,-2.910264134930492,3.3365487192444343,2.171422259214262,0.5837983026062596,6.57,0.32,0.252,0.22,1.0,19
230,13.0,1744993749.965242,0.0315141789615154,-0.0135524962097406,-5.0025634765625,-0.6031386256217957,0.0188353359699249,-0.0133719975128769,-0.1192410439252853,0.0469417013227939,-9.79465389251709,0.091866923333489,0.0280277258805012,-2.908232300984391,3.2347922868705314,1.8415416329967476,0.4987678138847325,6.57,0.32,0.252,0.22,1.0,20
231,14.0,1744993757.8477125,0.1591336131095886,0.1110135912895202,-5.007225036621094,0.5459576845169067,-0.3740951418876648,0.1840882003307342,-0.1008319407701492,0.0518995821475982,-10.218588829040527,-0.0819928685202577,-0.0450369875911388,-2.879808260703163,3.103783124934381,1.6734140003958364,0.4232723980088576,19.67,0.21,0.164,0.071,1.0,0
232,14.0,1744993759.7235138,2.0737245082855225,-0.2561345398426056,-4.903404235839844,0.5529157519340515,0.2315083891153335,-0.0894629284739494,0.0145908221602439,0.0561829507350921,-9.813044548034668,-0.0833734458754421,-0.0347783358901143,-2.881585591758053,3.1157673548683302,2.192309843762419,0.5158633363171973,19.67,0.21,0.164,0.071,1.0,1
233,14.0,1744993761.991978,4.0336594581604,0.2388789355754852,-4.992881774902344,0.6711442470550537,-0.0983338728547096,-0.0073020565323531,-0.106229767203331,-0.0495960004627704,-9.8231201171875,-0.0964721445322183,0.0092560306195257,-2.886874504465653,2.701449849043451,2.096088681409695,0.4026599846987013,19.67,0.21,0.164,0.071,1.0,2
234,14.0,1744993763.9657853,5.939049243927002,-0.0755816325545311,-4.995391845703125,0.6248482465744019,-0.0691482871770858,0.0102217597886919,-0.1195672377943992,0.0057196803390979,-9.80817413330078,-0.0747911009248392,-0.037384136320873,-2.8871406577963112,2.8511078964051624,1.88622479895206,0.5610600365980835,19.67,0.21,0.164,0.071,1.0,3
235,14.0,1744993765.4679651,6.363123416900635,-0.0980115383863449,-4.575447082519531,0.0417559370398521,0.0813023895025253,0.7307049036026001,-0.0278048627078533,-0.0117003405466675,-9.580196380615234,-0.0006974867356909,-0.0002542088091541,-2.88621942138264,2.613705275170543,2.042540241104548,0.5424503107370375,19.67,0.21,0.164,0.071,1.0,4
236,14.0,1744993765.9740765,6.312376022338867,-0.0408441014587879,-4.223159790039063,-0.0430461578071117,0.1261491179466247,0.7991389632225037,-0.1562400907278061,-0.0206945724785327,-9.802041053771973,-0.0001514142714112,-0.0001960083244365,-2.885606846512167,3.012443568862272,2.372161194317278,0.4550867156337664,19.67,0.21,0.164,0.071,1.0,5
237,14.0,1744993766.477421,12.0,0.0,-5.0,-0.1131088063120842,0.1726298481225967,0.803032636642456,-0.0996465310454368,-0.0215784311294555,-9.8704195022583,-0.0003591958913689,-7.068206653406213e-05,-2.88487564753061,3.16332672416967,1.9405810770332752,0.5384515877673297,19.67,0.21,0.164,0.071,1.0,6
238,14.0,1744993766.983455,14.0,0.0,-5.0,-0.1830670684576034,0.2193939387798309,0.7763462662696838,-0.1489790380001068,-0.0143188145011663,-9.921813011169434,-0.000267866324222,-0.0001678420715687,-2.8843895384986,2.9311172079949266,2.24616345304235,0.4702788060379785,19.67,0.21,0.164,0.071,1.0,7
239,14.0,1744993767.4874785,16.0,0.0,-5.0,-0.2256636768579483,0.2652128040790558,0.7464145421981812,-0.1583351194858551,-0.0186330825090408,-9.958414077758787,-0.0001504356913687,-9.53140556610576e-05,-2.884009246781728,3.426869465402647,2.11126115948035,0.5293541857907975,19.67,0.21,0.164,0.071,1.0,8
240,14.0,1744993767.9935231,18.0,0.0,-5.0,-0.2721686363220215,0.3088305294513702,0.7172898650169373,-0.0700399354100227,-0.0396678522229194,-9.846274375915527,-4.519458190299554e-05,-7.799200530440582e-05,-2.883633309046429,2.670460770651085,2.2375060753483837,0.5973819520526917,19.67,0.21,0.164,0.071,1.0,9
241,14.0,1744993768.4978254,20.0,0.0,-5.0,-0.308000236749649,0.3474214076995849,0.6997362971305847,-0.0327768065035343,-0.0388302989304065,-9.863338470458984,1.1014136646099e-05,-7.798543904594013e-05,-2.883351704392371,2.93968340517086,1.6031651028403004,0.5758858114235035,19.67,0.21,0.164,0.071,1.0,10
242,14.0,1744993769.0032082,18.0,0.0,-5.0,-0.3291448354721069,0.3865179121494293,0.6861279010772705,-0.0521732531487941,-0.043154451996088,-9.860024452209473,-1.593635212211816e-05,-1.1019710984876824e-05,-2.882990929052815,3.3812907997700856,1.5404515433088164,0.4822172297139256,19.67,0.21,0.164,0.071,1.0,11
243,14.0,1744993769.5085163,16.0,0.0,-5.0,-0.3627506196498871,0.422532320022583,0.6798464059829712,-0.0178002826869487,0.0193451792001724,-9.859787940979004,5.617462130758601e-05,9.764854221722436e-05,-2.8828667512757526,2.541898389747816,2.112289609479862,0.4131360986679734,19.67,0.21,0.164,0.071,1.0,12
244,14.0,1744993770.013165,14.0,0.0,-5.0,-0.3887870907783508,0.4605494141578674,0.6788839101791382,-0.0997942686080932,0.0103288907557725,-9.698893547058104,9.505949944926377e-05,-1.2029238121800228e-05,-2.882989284706402,2.8454663698670624,2.3511955403559366,0.5589587940621714,19.67,0.21,0.164,0.071,1.0,13
245,14.0,1744993770.5175116,12.0,0.0,-5.0,-0.4172153770923614,0.4947987496852875,0.6821615099906921,-0.0855511873960495,0.0288782250136137,-9.722204208374023,0.0001122992119635,9.541893615771313e-06,-2.8829795252579777,2.535473461623732,1.678228187636868,0.4113295023621059,19.67,0.21,0.164,0.071,1.0,14
246,14.0,1744993771.022347,10.0,0.0,-5.0,-0.4402312636375427,0.5278840065002441,0.6847840547561646,-0.048443503677845,-0.0025256108492612,-9.85133934020996,5.259134390846631e-05,-3.451051074917614e-05,-2.882955215222394,2.948270157942648,1.5783052440109264,0.4104564339250832,19.67,0.21,0.164,0.071,1.0,15
247,14.0,1744993771.5268226,8.0,0.0,-5.0,-0.454445332288742,0.5647773742675781,0.6890209913253784,-0.0410905703902244,0.0612585097551345,-9.805456161499023,2.533499120698952e-05,7.977612838729635e-05,-2.8830383391906502,3.248890681091808,2.3856089084420087,0.5410410083649972,19.67,0.21,0.164,0.071,1.0,16
248,14.0,1744993772.0323372,6.0,0.0,-5.0,-0.4874125719070434,0.596340000629425,0.6915138959884644,-0.1638376265764236,0.0091480920091271,-9.74028205871582,1.8287978742100203e-05,1.7562062708840815e-05,-2.8830527432440296,2.594348224027488,2.4407092242373203,0.5612340502736506,19.67,0.21,0.164,0.071,1.0,17
249,14.0,1744993772.5376294,4.0,0.0,-5.0,-0.5085486769676208,0.6359826326370239,0.6935377717018127,-0.1520520150661468,-0.0272897519171237,-9.799161911010742,4.726606532005293e-05,5.393090992640669e-05,-2.8831094379666053,2.884405023743401,2.463613458603961,0.582855794301914,19.67,0.21,0.164,0.071,1.0,18
250,14.0,1744993773.04192,2.0,0.0,-5.0,-0.5236629843711853,0.6709926128387451,0.6986901164054871,-0.1315829157829284,0.0144778992980718,-9.81661891937256,5.14601064653745e-06,-8.529475637659582e-05,-2.8832052796389283,3.328036943905329,2.172006825661864,0.5463574642317184,19.67,0.21,0.164,0.071,1.0,19
251,14.0,1744993773.547321,0.0,0.0,-5.0,-0.5461592078208923,0.706183910369873,0.6985503435134888,-0.0925590693950653,-0.1101379990577697,-9.796463012695312,-2.0716584119546795e-05,4.604278041996728e-05,-2.8832231462045383,3.189675003593277,2.009908920035011,0.486140226469362,19.67,0.21,0.164,0.071,1.0,20
252,15.0,1744993784.0641572,0.0723388195037841,0.1877177953720092,-5.228553771972656,0.5704227685928345,-0.2212512791156768,0.0837991014122963,-0.0644732415676117,-0.1179478466510772,-9.366691589355469,-0.0720326217378453,0.0068030998548382,-3.1220914395869497,2.733282301219169,2.152682418467005,0.4255388308152327,19.64,0.35,0.391,0.213,1.0,0
253,15.0,1744993786.057928,1.9710203409194944,-0.033453956246376,-4.933296203613281,0.6806529760360718,0.073744498193264,0.0078129628673195,-0.0398289039731025,-0.0340306721627712,-10.043042182922363,-0.0800420281691034,0.0071904804987861,3.1384461797456384,3.139330135598027,2.1371696014451214,0.5858978128286045,19.64,0.35,0.391,0.213,1.0,1
254,15.0,1744993788.2635672,4.001913547515869,0.2475544512271881,-4.9627685546875,0.5563334822654724,-0.1827944368124008,-0.0492895767092704,-0.0198569521307945,-0.0906574726104736,-9.804253578186035,-0.0751513301317379,0.0312590784822257,3.1208256059334056,2.7667582041463934,2.309270193678311,0.4316307826060391,19.64,0.35,0.391,0.213,1.0,2
255,15.0,1744993808.8685598,6.322063446044922,0.3239321410655975,-4.986457824707031,0.0938411504030227,-0.4250342845916748,0.0049727796576917,-0.0831999033689498,-0.0084239095449447,-9.892792701721191,-0.0669383461930182,0.018646150113337,-3.0896657919377963,3.393244945446068,2.464300026833624,0.5028568847118015,19.64,0.35,0.391,0.213,1.0,3
256,15.0,1744993811.1581976,8.078149795532227,-0.3245636224746704,-4.9881591796875,0.4986915588378906,0.2516511678695678,-0.0013475245796144,-0.1181997209787368,0.007780484855175,-9.901244163513184,-0.0833930107089161,-0.0159367734729353,-3.084620136672142,3.065828531931144,1.7159979141426631,0.4951844220168419,19.64,0.35,0.391,0.213,1.0,4
257,15.0,1744993813.2607105,9.982027053833008,0.2277278006076812,-4.98797607421875,0.6140346527099609,-0.0302569195628166,0.0102086002007126,-0.0001416914165019,-0.0562574975192546,-9.889018058776855,-0.0919791471582082,0.0428284941019896,-3.086652651550846,2.9020687115073374,2.044094156184232,0.5977652661881123,19.64,0.35,0.391,0.213,1.0,5
258,15.0,1744993815.3011427,11.993326187133787,-0.0854287967085838,-4.991256713867188,0.6227463483810425,-0.0933637768030166,0.0044400235638022,-0.0522556453943252,-0.0485342964529991,-9.799309730529783,-0.0929563260679293,-0.0192398888931498,-3.0824776948752057,3.3362385185567702,1.8557621882740087,0.5687572137230568,19.64,0.35,0.391,0.213,1.0,6
259,15.0,1744993817.4023545,13.94825267791748,-0.0397473461925983,-4.993629455566406,0.5843223333358765,0.133858785033226,0.0062141492962837,-0.1076215431094169,-0.0466895960271358,-9.821362495422363,-0.0830408407424429,0.0154689072330668,-3.078830386528929,2.8863936600346065,1.7978253495253298,0.5836237559947082,19.64,0.35,0.391,0.213,1.0,7
260,15.0,1744993819.525106,15.994884490966797,0.1098710298538208,-4.992759704589844,0.6090167164802551,-0.089960291981697,0.0048103397712111,-0.0159172937273979,-0.0219999626278877,-9.876641273498535,-0.0936876418953792,0.0136538581805596,-3.077145701135653,2.857938448580872,1.6646740043511468,0.5303749995271703,19.64,0.35,0.391,0.213,1.0,8
261,15.0,1744993821.56398,17.94644546508789,-0.0650005489587783,-4.993598937988281,0.6023296117782593,0.0166162345558404,-0.0007192413322627,-0.0688558593392372,-0.0510018840432167,-9.88005828857422,-0.0855499126633291,-0.0030317515756798,-3.07287230138196,2.802813710204073,1.8010337368458145,0.4345225695607935,19.64,0.35,0.391,0.213,1.0,9
262,15.0,1744993823.6645844,19.976903915405277,0.0462941452860832,-4.987449645996094,0.6149238348007202,0.0269922725856304,0.0059973686002194,0.0331537723541259,0.0158675666898489,-9.792314529418944,-0.0948074206614078,0.0164391891160889,-3.069865614356933,3.303106317518539,1.6046353180409814,0.5624780297750158,19.64,0.35,0.391,0.213,1.0,10
263,15.0,1744993825.994321,17.651716232299805,-0.1641440838575363,-4.966064453125,-0.971360206604004,0.031519278883934,-0.0757642164826393,-0.1004027128219604,-0.0580315962433815,-9.898355484008787,0.1756647995518779,0.0014182611056949,-3.0575552998610718,2.908561118720427,2.0850029708394247,0.4441840250313916,19.64,0.35,0.391,0.213,1.0,11
264,15.0,1744993827.3401644,15.996520042419434,0.0146163618192076,-5.015655517578125,-0.6705139875411987,0.1443830728530883,-0.0234937537461519,-0.0669118911027908,-0.0447941720485687,-9.8600492477417,0.0984276086892038,0.03985524846404,-3.0517810571916764,2.5581888551337864,2.1829853482605683,0.4173087223562262,19.64,0.35,0.391,0.213,1.0,12
265,15.0,1744993828.9401352,14.066746711730955,0.1188967227935791,-5.003791809082031,-0.5678519010543823,-0.1805539578199386,-0.0104536479339003,-0.1574376672506332,-0.0277394726872444,-9.842155456542969,0.0742630753091375,0.0179124005669238,-3.041883594601752,3.48475831565428,1.6461017940400668,0.5505869917173445,19.64,0.35,0.391,0.213,1.0,13
266,15.0,1744993831.1044257,11.989219665527344,-0.1174377053976059,-5.0003204345703125,-0.6495317816734314,0.0685514733195304,-0.0194357559084892,-0.0380069836974144,-0.0492230057716369,-9.866220474243164,0.0994235593498885,0.0112371873324353,-3.0410569831225467,3.005021599906017,2.464732751643947,0.5422445819253803,19.64,0.35,0.391,0.213,1.0,14
267,15.0,1744993833.1030192,10.06122875213623,0.0719852223992347,-5.001350402832031,-0.6196099519729614,0.0059954887256026,-0.0182075295597314,-0.1570565998554229,0.0263934731483459,-9.80700969696045,0.0834179439203549,0.0341908396294566,-3.0380452701643046,3.404455435910888,2.412364221811803,0.5407432755122183,19.64,0.35,0.391,0.213,1.0,15
268,15.0,1744993835.2049582,8.029759407043457,-0.0173689071089029,-5.001731872558594,-0.6202091574668884,-0.0567136257886886,-0.0184098277240991,-0.1279183775186538,-0.0185219254344701,-9.865921974182127,0.0918666689319259,0.0127891306059421,-3.035376421555742,3.259665869204542,2.2987763534085475,0.5415084806717487,19.64,0.35,0.391,0.213,1.0,16
269,15.0,1744993837.2479718,6.033742904663086,-0.0506182312965393,-5.0027618408203125,-0.6378277540206909,0.0463636517524719,-0.0121632544323802,-0.1270218789577484,0.0023578256368637,-9.860319137573242,0.09532097711082,0.0197349569242966,-3.0337926379913296,2.6416072048036394,1.7150604233423343,0.5627882377539516,19.64,0.35,0.391,0.213,1.0,17
270,15.0,1744993839.306765,4.040627479553223,0.0330179892480373,-5.00421142578125,-0.6029317378997803,-0.0215659216046333,-0.0110657401382923,0.0119031146168708,-0.1024289578199386,-9.840062141418455,0.0898515463817244,0.0250278220896798,-3.030989289403708,3.087227215653576,1.7126402118604176,0.4065707295420505,19.64,0.35,0.391,0.213,1.0,18
271,15.0,1744993841.4092488,2.043663740158081,-0.0214083809405565,-4.994140625,-0.6029259562492371,-0.0176844540983438,-0.0226187780499458,-0.0705505311489105,-0.067116841673851,-9.821229934692385,0.0900303803082185,0.0166221981736764,-3.0296617638811565,3.2823729903693817,2.0027915662725317,0.5842647490658724,19.64,0.35,0.391,0.213,1.0,19
272,15.0,1744993843.509343,0.0368215255439281,-0.030107932165265,-5.002769470214844,-0.5981150269508362,0.0248826276510953,-0.0151027329266071,-0.1087406054139137,0.001091624610126,-9.905780792236328,0.0891982058036453,0.0203491564388214,-3.027890807223549,3.4548920527007474,1.9542676723692027,0.5240111397470922,19.64,0.35,0.391,0.213,1.0,20
273,16.0,1744993852.6371903,-0.1104367449879646,-1.1929469108581543,-5.219627380371094,0.0681451708078384,-1.064416527748108,-0.4738059639930725,-0.0665386170148849,0.0022262558341026,-8.362893104553223,0.0721409688903313,-0.3157519342388789,-2.964738461674389,3.1755243370196,1.6328660498976495,0.5787196537247028,3.26,0.38,0.487,0.493,1.0,0
274,16.0,1744993855.0533612,2.285208225250244,0.4073004424571991,-4.878547668457031,0.5590341091156006,0.7066988945007324,0.079484038054943,-0.0447619557380676,0.0200987700372934,-10.529494285583496,-0.1575367956933499,0.1537016230171697,-2.9821518824709963,3.3895110515462745,1.913936091746317,0.5809641639826051,3.26,0.38,0.487,0.493,1.0,1
275,16.0,1744993857.3874557,4.049858570098877,-0.1392397284507751,-4.9349212646484375,0.2828212678432464,-0.7248996496200562,-0.125737577676773,-0.1086072325706482,-0.0467014983296394,-9.872363090515137,-0.0434708417341567,-0.1019969035083068,-2.984284708973952,2.7293133039086914,1.655120530866145,0.5078642939072662,3.26,0.38,0.487,0.493,1.0,2
276,16.0,1744993860.0486932,6.187386512756348,-0.0686362013220787,-5.000602722167969,0.3813426196575165,0.5655460357666016,0.0204034727066755,-0.1089480966329574,-0.0566917695105075,-9.82602596282959,-0.1035374812712168,0.0556594288509161,-2.982244818811968,3.445724773809624,2.0194373736031803,0.4310566802351889,3.26,0.38,0.487,0.493,1.0,3
277,16.0,1744993862.4067593,8.05697250366211,0.1418878138065338,-4.988533020019531,0.4544092714786529,-0.4064173400402069,-0.0048129009082913,-0.0662133395671844,-0.00557701010257,-9.830903053283691,-0.0773661353988304,-0.0268141480877547,-2.987479577749473,2.846674178507479,1.6461055910680922,0.5613352417235403,3.26,0.38,0.487,0.493,1.0,4
278,16.0,1744993863.6494002,11.181416511535645,-0.207304760813713,-4.696128845214844,1.5323632955551147,0.0934182479977607,-0.2237582802772522,-0.0070561682805418,-0.0519520863890647,-11.403091430664062,-0.4739606846310011,-0.0815612848326128,-2.9694205605451462,2.74516676253571,2.4274967859430387,0.4335458782053999,3.26,0.38,0.487,0.493,1.0,5
279,16.0,1744993864.4481416,12.135467529296877,-0.141183391213417,-4.889976501464844,0.088482066988945,0.151141881942749,-0.3144778609275818,-0.1523639857769012,0.0189161710441112,-9.657358169555664,-0.1661960885072645,-0.0147013231335389,-2.9940010516083206,2.795479606974031,2.152831515116159,0.4933600456289188,3.26,0.38,0.487,0.493,1.0,6
280,16.0,1744993867.9552314,14.05074977874756,0.0983080193400383,-5.0514068603515625,0.4751926362514496,-0.0902676284313201,0.0731859728693962,-0.1125513240694999,0.0083896555006504,-9.981452941894531,-0.1247652527590663,-0.0097380972571107,-2.9312893321914832,2.6743886217217514,2.4145934959608333,0.4741324139390724,3.26,0.38,0.487,0.493,1.0,7
281,16.0,1744993870.2440326,15.807753562927246,-0.0958457589149475,-5.002632141113281,0.3571668267250061,0.0231825672090053,-0.0063015739433467,-0.0652586072683334,-0.0030075279064476,-9.860175132751465,-0.0511924151253271,-0.0162541191316538,-2.9277039505224827,2.7553166135090503,1.7656179717768097,0.4552822373782219,3.26,0.38,0.487,0.493,1.0,8
282,16.0,1744993872.637766,17.992246627807617,0.0763009339570999,-4.999267578125,0.5693210363388062,-0.0024691536091268,0.0179613251239061,-0.0722991749644279,-0.0717617198824882,-9.848072052001951,-0.1027764368501531,-0.0004226347286165,-2.929537566230348,2.951349104233404,2.1706135515317846,0.5172726126157893,3.26,0.38,0.487,0.493,1.0,9
283,16.0,1744993874.740314,19.91009521484375,-0.0166660826653242,-4.987800598144531,0.5325767397880554,-0.0442927367985248,0.0031759131234139,-0.160687506198883,0.0303585864603519,-9.918993949890137,-0.0753635453774095,-0.0175122884082704,-2.929268989537257,3.452936626222145,1.894195917822585,0.5183961261742505,3.26,0.38,0.487,0.493,1.0,10
284,16.0,1744993877.0103807,17.65640640258789,-0.1063012853264808,-4.96942138671875,-0.9633611440658568,0.0691502913832664,-0.0830872058868408,-0.1427541822195053,0.0704445540904998,-9.972362518310549,0.1686784479240048,0.0320288754397917,-2.924267373621302,3.3231842102029026,1.5666107964845004,0.5013061260499023,3.26,0.38,0.487,0.493,1.0,11
285,16.0,1744993878.3542068,15.984800338745115,0.0422069504857063,-5.0216827392578125,-0.6925266981124878,0.0644008517265319,-0.0158483851701021,-0.1150013729929924,0.0182367004454135,-9.849248886108398,0.0973175602941001,0.042433374591866,-2.9243060136470698,2.84045020436144,1.6456885453851626,0.4186576744369352,3.26,0.38,0.487,0.493,1.0,12
286,16.0,1744993880.3497007,14.073296546936035,0.0606179721653461,-5.001495361328125,-0.5825461745262146,-0.0995033755898475,-0.0358227044343948,-0.1747575402259826,-0.0384927317500114,-9.796515464782717,0.0845189928011252,0.0226302130896193,-2.930652435048497,3.3016190256172075,2.054844580197183,0.4567930925765448,3.26,0.38,0.487,0.493,1.0,13
287,16.0,1744993882.5202336,12.056453704833984,-0.0766900777816772,-5.0095062255859375,-0.6381913423538208,0.0460209995508194,-0.0197707545012235,-0.0731216594576835,-0.0020392779260873,-9.775168418884276,0.0956392207086697,0.0200025438077705,-2.9265608053514,2.6113660849923117,2.497941079045543,0.5314165185540218,3.26,0.38,0.487,0.493,1.0,14
288,16.0,1744993886.1449058,10.482813835144045,0.1884475946426391,-5.279876708984375,1.2219023704528809,0.070050448179245,0.1021059677004814,-0.0288382321596145,-0.0513048209249973,-9.49586582183838,-0.1665833770063416,-0.0133820648797246,-2.8112829280381875,3.151816912271116,1.86833354722761,0.4029262392869177,3.26,0.38,0.487,0.493,1.0,15
289,16.0,1744993889.2441013,7.471315383911133,-0.1702321320772171,-4.977973937988281,-0.9862595200538636,0.0100045595318079,-0.1036634147167205,-0.2121033072471618,-0.087634153664112,-10.178343772888184,0.2387238969601438,0.0630950297478905,-2.7872635111010173,3.4224193986967,2.4926680870158417,0.4100484910778765,3.26,0.38,0.487,0.493,1.0,16
290,16.0,1744993890.461234,6.092198371887207,-0.092510849237442,-5.038009643554688,-0.415039598941803,0.1558590233325958,-0.0322683379054069,-0.1195395737886428,-0.0114853158593177,-9.73121452331543,0.0756729771057536,0.0349035831042392,-2.795948292274579,3.2530454977689285,2.0372673104974206,0.5751060743628563,3.26,0.38,0.487,0.493,1.0,17
291,16.0,1744993893.0683265,4.077513217926025,0.0754414200782775,-5.0158538818359375,-0.5197155475616455,-0.1047797501087188,-0.0057521280832588,-0.1686523407697677,-0.0245774630457162,-9.798609733581545,0.0750459627722413,0.0326950033127765,-2.7945643132995226,2.992644212473273,2.416073181625948,0.4636892464578364,3.26,0.38,0.487,0.493,1.0,18
292,16.0,1744993895.2768617,2.023587703704834,-0.1040121912956237,-4.997673034667969,-0.5822651386260986,0.0640216022729873,-0.0199050810188055,-0.0171612054109573,0.0158001817762851,-9.829907417297363,0.0914108179708803,0.026955912870575,-2.799646948842771,2.617025967122644,1.67760523260855,0.5950176111778814,3.26,0.38,0.487,0.493,1.0,19
293,16.0,1744993897.3775847,0.069577544927597,0.0477025881409645,-5.0047454833984375,-0.5886542201042175,0.0152472602203488,-0.0137906754389405,-0.0776287019252777,-0.0677992925047874,-9.823227882385254,0.0767998871968308,0.0424948437435255,-2.80260671818308,3.0424183521397663,1.6781182221725537,0.5673628052975839,3.26,0.38,0.487,0.493,1.0,20
294,17.0,1744993910.7035117,-0.1873839497566223,-0.3234083354473114,-5.186149597167969,-0.4210244417190552,0.2117940634489059,0.22454933822155,-0.1436808407306671,-0.0519718900322914,-9.684836387634276,0.0838129020293837,0.0197489149755549,-2.7779739546386444,3.1553178237993165,1.5811563691727146,0.408025634903558,9.01,0.08,0.321,0.13,1.0,0
295,17.0,1744993922.9699688,1.6285606622695925,-0.0506962575018405,-5.015640258789063,0.3074681758880615,-0.3559650480747223,-0.0061156912706792,-0.0676918253302574,-0.0116993524134159,-9.716299057006836,0.030256421362145,-0.0399452149390477,-3.0578075714822948,2.8137376073155966,2.032294112486873,0.5112922456346236,9.01,0.08,0.321,0.13,1.0,1
296,17.0,1744993925.1123865,4.212545394897461,0.0833987072110176,-4.9886627197265625,0.8125621676445007,0.1702266633510589,0.0248960684984922,-0.0263984221965074,-0.024864412844181,-9.930535316467283,-0.1515084731246587,0.0298102924767097,-3.0499535995777407,3.265613041613936,1.8989229438617,0.5740611745961435,9.01,0.08,0.321,0.13,1.0,2
297,17.0,1744993926.0713928,5.935059547424316,0.0583143047988414,-4.981285095214844,0.5988296866416931,-0.1649634689092636,-0.0059187323786318,-0.0689304694533348,-0.0363735482096672,-9.79948616027832,-0.0830557760150863,-0.0085346268773914,-3.0443933791758315,3.493166577843186,1.6976348017885257,0.5874943491946897,9.01,0.08,0.321,0.13,1.0,3
298,17.0,1744993928.383005,8.0081787109375,-0.0523410253226757,-4.997230529785156,0.6573646068572998,0.1756284385919571,-0.0024316613562405,0.0014234744012355,-0.0382154732942581,-9.79605770111084,-0.0969440583040681,0.0102811581124038,-3.034493554331529,2.6806840635431533,2.466396013197402,0.5452482405203025,9.01,0.08,0.321,0.13,1.0,4
299,17.0,1744993930.397853,9.98917293548584,0.1620652973651886,-4.998748779296875,0.6240055561065674,-0.1010355055332183,0.0089987320825457,0.0392872393131256,0.0857302024960517,-9.843012809753418,-0.0974300755983647,0.012476476454796,-3.0239113411828997,3.2952769720055914,1.6293305434961578,0.4274776595161395,9.01,0.08,0.321,0.13,1.0,5
300,17.0,1744993932.4161332,11.951552391052246,-0.0534950643777847,-4.9915618896484375,0.5932373404502869,-0.0089130075648427,0.0043790726922452,-0.0698013454675674,0.1123296171426773,-9.826642036437988,-0.0873063979617692,-0.0138961182163296,-3.011069419355681,2.619391101600898,1.5989623072524954,0.5773737167989383,9.01,0.08,0.321,0.13,1.0,6
301,17.0,1744993934.5807676,13.92577838897705,0.093324676156044,-4.989707946777344,0.6054299473762512,0.0425838902592659,0.0065907044336199,-0.0391845218837261,-0.0093158334493637,-9.818498611450195,-0.0874948608213808,0.0173981969422605,-2.9978398135087216,2.8588243025888875,2.408993140682706,0.5912007581083947,9.01,0.08,0.321,0.13,1.0,7
302,17.0,1744993936.6410346,16.007755279541016,0.0757300183176994,-4.995079040527344,0.6167299747467041,-0.0953045859932899,0.0085784364491701,-0.0716003701090812,-0.0104491841048002,-9.841533660888672,-0.098839435204661,-0.0083882405447067,-2.9822741368718564,2.962544236140616,1.5608474045614074,0.4683687958398576,9.01,0.08,0.321,0.13,1.0,8
303,17.0,1744993938.6803925,17.939796447753906,-0.0530467703938484,-4.9930419921875,0.5779067873954773,0.0458795800805091,0.0099759791046381,-0.085821621119976,-0.0333049930632114,-9.788552284240724,-0.0854739437459356,-0.0110563435729477,-2.9682814085080205,3.364433034843396,2.440716197202936,0.5306965219142974,9.01,0.08,0.321,0.13,1.0,9
304,17.0,1744993940.8475294,19.964746475219727,0.1241248846054077,-4.988059997558594,0.6058821082115173,-0.0067803105339407,0.0021545027848333,-0.0271233357489109,-0.0277751926332712,-9.813295364379885,-0.0956261820260126,0.0102698165155785,-2.951847632928317,2.89629430968266,1.5169538060180623,0.564173555147814,9.01,0.08,0.321,0.13,1.0,10
305,17.0,1744993943.4528167,17.365076065063477,-0.5104033350944519,-4.974327087402344,-0.7107773423194885,0.2946231961250305,-0.0777787044644355,-0.2410988956689834,-0.0743979811668396,-10.05074691772461,0.1943053521266638,-0.0017330594910406,-2.912865230599249,3.1964397783939447,2.257902781868818,0.5985433887068541,9.01,0.08,0.321,0.13,1.0,11
306,17.0,1744993944.6719189,16.031326293945312,0.2541262805461883,-5.0103759765625,-0.5979170799255371,0.3721945285797119,-0.0249273609369993,-0.1324779242277145,-0.0740694850683212,-9.871603965759276,0.064816378064196,0.1124042370826564,-2.882777004992988,3.365605837864835,2.3028146320297087,0.5328980209775319,9.01,0.08,0.321,0.13,1.0,12
307,17.0,1744993947.2715435,14.070696830749512,0.0005078733665868,-5.000923156738281,-0.4566753506660461,-0.4733999371528625,-0.0250332728028297,-0.073148488998413,0.1167991310358047,-9.887271881103516,0.0675339570049013,-0.0300512526259738,-2.8534425176834186,3.1453721421709804,2.499349514430687,0.5799995795187858,9.01,0.08,0.321,0.13,1.0,13
308,17.0,1744993949.5585885,11.782343864440918,-0.2339408248662948,-5.002937316894531,-0.6189712285995483,0.3451320827007293,-0.0191660039126873,-0.2039437443017959,0.0309975296258926,-9.919633865356444,0.1174258534797144,0.0474365437487458,-2.8468052005778945,3.337993465584119,1.6786121849162796,0.4463275607123632,9.01,0.08,0.321,0.13,1.0,14
309,17.0,1744993951.572962,10.064680099487305,0.3487007319927215,-4.997764587402344,-0.4508537650108337,-0.2054258584976196,-0.0119878612458705,-0.0684447884559631,-0.0575554892420768,-9.88044261932373,0.0489919453990988,0.0617033781167795,-2.8326671435306947,2.707091472127091,2.406854501689621,0.4776912802613491,9.01,0.08,0.321,0.13,1.0,15
310,17.0,1744993953.9234312,7.985101222991943,-0.3141710162162781,-4.9973907470703125,-0.6651953458786011,0.0216599535197019,-0.0212685316801071,-0.1909471601247787,0.0134254889562726,-9.92823886871338,0.1113459738149242,-0.0077417460383995,-2.821710700382772,2.526887490001327,1.5551876389221084,0.4376965144379091,9.01,0.08,0.321,0.13,1.0,16
311,17.0,1744993955.9652047,6.025270462036133,0.0650233924388885,-5.004074096679688,-0.6546995043754578,0.1691353172063827,-0.0119774090126156,-0.1078558191657066,-0.0261231921613216,-9.812207221984863,0.0801621868368636,0.0687744604371,-2.8197241008871807,2.8533635582835712,1.6199552420273269,0.4256955187216839,9.01,0.08,0.321,0.13,1.0,17
312,17.0,1744993958.210572,4.046964168548584,0.0842931643128395,-4.996925354003906,-0.5596148371696472,-0.2012732774019241,-0.0161704961210489,-0.2099461257457733,-0.0528282113373279,-9.797836303710938,0.0796722325320019,0.0257710303909825,-2.810375722567763,2.656723875686113,2.164265976624157,0.5086408816453087,9.01,0.08,0.321,0.13,1.0,18
313,17.0,1744993960.4247966,1.9924379587173464,-0.1572355777025222,-4.998527526855469,-0.6554084420204163,0.0965557545423507,-0.0181555729359388,-0.1382698267698288,0.0212798416614532,-9.90391445159912,0.1005294046857062,0.0273296027928601,-2.8099330206957585,2.5945333082721533,1.7884457163639498,0.5841758320239951,9.01,0.08,0.321,0.13,1.0,19
314,17.0,1744993962.3823318,0.0716584846377372,0.1018733158707618,-4.9981231689453125,-0.5553673505783081,0.0083215460181236,-0.0273346938192844,-0.0962855145335197,0.0458211228251457,-9.828812599182127,0.072090339751265,0.0532605856948737,-2.804180381345424,3.2514546610316923,2.3563347832391024,0.4841227401743435,9.01,0.08,0.321,0.13,1.0,20
315,18.0,1744993978.3041582,0.1815703362226486,0.2966132164001465,-4.959999084472656,-0.1303697377443313,0.7888683080673218,0.1676474660634994,-0.1364824473857879,-0.0065984269604086,-10.306846618652344,-0.078486762590064,0.1367868098762535,-2.704790914970724,3.0513489858905283,2.4034227675395945,0.505724944202747,6.95,0.39,0.26,0.077,1.0,0
316,18.0,1744993980.8294928,2.334789514541626,-0.0863766446709632,-4.910079956054688,0.5465128421783447,-0.6761934161186218,-0.1200322359800338,-0.0404221713542938,-0.0126957753673195,-9.993247032165527,-0.0826015619966332,-0.1335828024818321,-2.709295256514079,2.569065226602942,2.207234148787566,0.4684147978941841,6.95,0.39,0.26,0.077,1.0,1
317,18.0,1744993983.400053,4.124690055847168,-0.1364595144987106,-5.000946044921875,0.1596071720123291,0.5725083947181702,0.0141609329730272,-0.0499799996614456,0.095726378262043,-9.841836929321287,-0.0709338579120756,0.026295998099269,-2.708146226549284,2.914722530676817,2.2984809250520613,0.4642356348794779,6.95,0.39,0.26,0.077,1.0,2
318,18.0,1744993985.9107592,6.147788047790527,0.150271326303482,-4.98675537109375,0.5367380380630493,-0.3808392286300659,-0.0009159483015537,-0.0180105529725551,0.060046661645174,-9.865424156188965,-0.0891094685763251,-0.0563488596606446,-2.714623767983807,2.731461932066021,2.210056721998653,0.5768680319367605,6.95,0.39,0.26,0.077,1.0,3
319,18.0,1744993989.08328,8.328144073486328,0.0395553261041641,-4.868232727050781,0.0450870990753173,0.3085634112358093,0.5544044971466064,-0.0798467695713043,0.0170714370906353,-9.152971267700195,-0.0050278779920217,0.0001571239488467,-2.7217574219966214,3.442871852092677,1.7497642532211726,0.4211388339112502,6.95,0.39,0.26,0.077,1.0,4
320,18.0,1744993988.9691029,8.318527221679688,0.2383087426424026,-4.594734191894531,0.002781996037811,0.3623213469982147,0.7320308685302734,-0.1162360534071922,0.1493318676948547,-9.592170715332031,0.0006868786370424,-0.0004744286391368,-2.7213426792670585,3.409143051557264,1.9544567065461016,0.5633576015250452,6.95,0.39,0.26,0.077,1.0,5
321,18.0,1744993989.4744084,8.254043579101562,0.4511246383190155,-4.235969543457031,-0.0538572296500206,0.4048041403293609,0.7999442219734192,-0.0936455279588699,0.0173120833933353,-9.792352676391602,0.0001687055625407,-0.0003152018033651,-2.72085751787469,3.054787774760161,1.7909345840384945,0.5085010514497685,6.95,0.39,0.26,0.077,1.0,6
322,18.0,1744993989.977661,14.0,0.0,-5.0,-0.1037171557545661,0.4393560588359833,0.8054510951042175,-0.1629234552383422,-0.034160166978836,-9.793747901916504,1.3459082771677256e-05,-0.0001972841812972,-2.720799069773604,2.7705843595465094,2.4104107957531213,0.595081597591851,6.95,0.39,0.26,0.077,1.0,7
323,18.0,1744993990.4816482,16.0,0.0,-5.0,-0.1409006714820861,0.4691698253154754,0.7840070724487305,-0.0779206529259681,0.0190578810870647,-9.840158462524414,-1.892144002070199e-05,-6.69172479015089e-05,-2.7207361991801027,3.1249255449448814,1.6598781375606395,0.5940207795594014,6.95,0.39,0.26,0.077,1.0,8
324,18.0,1744993990.9873824,18.0,0.0,-5.0,-0.1643866896629333,0.4982608556747436,0.7480108141899109,-0.1056762859225273,-0.0654123499989509,-9.851494789123535,1.6533888891454047e-05,-0.0001209676028725,-2.7205076975240616,3.115405836602415,1.898962212580636,0.4282874972081416,6.95,0.39,0.26,0.077,1.0,9
325,18.0,1744993992.494975,20.0,0.0,-5.0,-0.1651172637939453,0.5884843468666077,0.6893444061279297,-0.0496620088815689,-0.0208607707172632,-9.770610809326172,-3.0584591753676587e-06,2.5301115352283214e-05,-2.720814988967524,3.395770763429486,2.350384477886479,0.4432752332681706,6.95,0.39,0.26,0.077,1.0,10
326,18.0,1744993992.9999127,18.0,0.0,-5.0,-0.1785126626491546,0.6067950129508972,0.6854991316795349,-0.0150779224932193,0.0175952557474374,-9.853248596191406,0.0001058324896027,7.782827266599196e-05,-2.72104615561825,2.5697014983908613,1.6121119774695618,0.5826441571263653,6.95,0.39,0.26,0.077,1.0,11
327,18.0,1744993993.5035102,16.0,0.0,-5.0,-0.1802834123373031,0.6285470724105835,0.6831055283546448,-0.0084928721189498,0.0014950480544939,-9.824292182922363,8.204042107936527e-05,9.084266891902764e-05,-2.721171515089957,2.7851246361837294,2.2150182187111964,0.4242472838550433,6.95,0.39,0.26,0.077,1.0,12
328,18.0,1744993994.006579,14.0,0.0,-5.0,-0.1706365495920181,0.6554901599884033,0.6844707131385803,-0.1547783017158508,0.0020759347826242,-9.781416893005373,0.0001314139754608,-2.6577295096411916e-05,-2.72160939098883,3.3390048788531805,2.035098324358975,0.4061112249383296,6.95,0.39,0.26,0.077,1.0,13
329,18.0,1744993994.51383,12.0,0.0,-5.0,-0.1636014282703399,0.6822991371154785,0.68798828125,-0.0645878240466117,0.0430934391915798,-9.844971656799316,-1.483394759417954e-05,8.892680535048344e-05,-2.721703877489128,3.4204079175211346,2.392247483491544,0.509684713636262,6.95,0.39,0.26,0.077,1.0,14
330,18.0,1744993995.0180972,10.0,0.0,-5.0,-0.1724334955215454,0.7027429342269897,0.6923709511756897,-0.1816211938858032,0.0189261157065629,-9.746524810791016,0.000112789617901,3.193356363442543e-05,-2.7216805471125114,2.833472786916686,1.6693692890355054,0.4895159695043796,6.95,0.39,0.26,0.077,1.0,15
331,18.0,1744993995.523031,8.0,0.0,-5.0,-0.179811343550682,0.7236668467521667,0.6954470276832581,-0.0661615654826164,-0.0071595427580177,-9.799328804016112,0.00010721852967,5.642079530411107e-05,-2.721705840773845,2.612153048528951,2.0732005915998104,0.5987693812040145,6.95,0.39,0.26,0.077,1.0,16
332,18.0,1744993997.0385463,6.0,0.0,-5.0,-0.1987019181251526,0.7918935418128967,0.69582599401474,-0.0991594195365905,0.0033635443542152,-9.820277214050291,3.709267556702512e-05,5.5541486535538016e-05,-2.7218836383224367,2.82843056472956,2.362302889046905,0.4349737618225405,6.95,0.39,0.26,0.077,1.0,17
333,18.0,1744993997.54272,4.0,0.0,-5.0,-0.2087932080030441,0.8166720867156982,0.697628915309906,-0.0363755598664283,0.0232350006699562,-9.76370906829834,2.3593020378564517e-05,-7.683306335539782e-05,-2.7218346087901777,3.260087468230675,1.7562504936218095,0.4127774577534846,6.95,0.39,0.26,0.077,1.0,18
334,18.0,1744993998.04907,2.0,0.0,-5.0,-0.2176433801651001,0.8406731486320496,0.6997166275978088,-0.1250316649675369,-0.0531743317842483,-9.74356174468994,2.9414158480402e-05,2.055046156281722e-05,-2.721940152128465,2.921083741898039,2.363217641100767,0.5071217689177292,6.95,0.39,0.26,0.077,1.0,19
335,18.0,1744993998.5547786,0.0,0.0,-5.0,-0.229852482676506,0.8677396178245544,0.7014743089675903,-0.111132726073265,-0.0534544065594673,-9.850785255432127,-4.085771371255114e-05,-4.666680756391535e-05,-2.722176466018306,3.024553709368327,2.2838307985115214,0.4782056601118875,6.95,0.39,0.26,0.077,1.0,20
336,20.0,1744994079.9576168,0.2618878483772278,1.146339774131775,-4.791236877441406,0.76021409034729,0.5814554691314697,0.0264580715447664,-0.0525009855628013,-0.1130508184432983,-10.939934730529783,-0.2471912987667043,0.1883564201545566,-2.717505190279238,2.5177938959165123,2.047921149154248,0.5190045768793189,5.28,0.29,0.188,0.269,1.0,0
337,20.0,1744994082.2724898,2.356605291366577,-0.4590868949890136,-4.922576904296875,-0.0645157024264335,-0.9934956431388856,-0.1822833567857742,0.0149247795343399,0.0268966779112815,-9.955491065979004,0.0081636205273561,-0.1972086535514486,-2.708619154703332,2.649670345787336,1.6146004805449343,0.4167843658262798,5.28,0.29,0.188,0.269,1.0,1
338,20.0,1744994084.349071,4.169532299041748,0.1756240129470825,-5.0043487548828125,0.4554386734962463,0.665573000907898,0.0272723920643329,-0.0386049337685108,-0.0052126813679933,-9.874396324157717,-0.1459794483590882,0.0630026994242161,-2.705889941527118,3.208340370986276,1.7584681893322682,0.4387935682162748,5.28,0.29,0.188,0.269,1.0,2
339,20.0,1744994086.7046385,6.073803901672363,0.0269780233502388,-4.989166259765625,0.3878591358661651,-0.5636540055274963,-0.015922287479043,-0.1701178848743438,-0.0516120120882988,-9.816609382629396,-0.0534740614929961,-0.0881813855796468,-2.7122302367013265,3.021770304501461,2.274747754003177,0.5347355165126981,5.28,0.29,0.188,0.269,1.0,3
340,20.0,1744994091.2990844,8.168383598327637,0.6648550033569336,-4.295661926269531,-0.1600912660360336,0.3233552873134613,0.8020732402801514,-0.082243338227272,0.0223843026906251,-9.705352783203123,-0.0009461171610133,0.0018518164207031,-2.7184431863401675,2.861083615989961,1.6635308247159468,0.4572238851653611,5.28,0.29,0.188,0.269,1.0,4
341,20.0,1744994091.8078415,8.018190383911133,0.8208287954330444,-3.8974761962890634,-0.1929676532745361,0.3036248087882995,0.8120688796043396,-0.1266994029283523,0.0119020417332649,-9.870750427246094,-0.0003508135516741,-0.0013667148748477,-2.718576006533526,2.580908978274215,1.9175819935723049,0.4336956605764849,5.28,0.29,0.188,0.269,1.0,5
342,20.0,1744994092.3153012,7.885092258453369,0.9537813067436218,-3.51531982421875,-0.2071488201618194,0.2911968827247619,0.7918407917022705,-0.0737396031618118,0.0155658926814794,-9.970149040222168,-0.0002158361820605,-0.0004299812427935,-2.718802639536871,2.5819718375391365,2.241370638184464,0.5142316596381367,5.28,0.29,0.188,0.269,1.0,6
343,20.0,1744994092.820346,14.0,0.0,-5.0,-0.2022272795438766,0.2714577615261078,0.7606177926063538,-0.1051190942525863,0.0446099191904068,-9.822891235351562,-0.000205924570618,-0.0002319858597413,-2.719102993535649,3.079046960685975,1.5444392089553387,0.4906678745100215,5.28,0.29,0.188,0.269,1.0,7
344,20.0,1744994093.3252976,16.0,0.0,-5.0,-0.179374098777771,0.2543757557868957,0.732611894607544,-0.0310728549957275,-0.0147678395733237,-9.95600128173828,-0.0001903019002236,-4.838105941042982e-05,-2.7191524821654323,3.084665001749612,2.219345622667282,0.4032819500191828,5.28,0.29,0.188,0.269,1.0,8
345,20.0,1744994093.8293424,18.0,0.0,-5.0,-0.1620868146419525,0.2350166738033294,0.7121754288673401,-0.0644648447632789,0.0817991197109222,-9.84989070892334,9.686749986406083e-06,-4.264902011362215e-05,-2.719533137773303,2.796957449994088,1.6132324926238124,0.5367993045062285,5.28,0.29,0.188,0.269,1.0,9
346,20.0,1744994094.3344154,20.0,0.0,-5.0,-0.1324279308319091,0.2171416580677032,0.6970103979110718,-0.0072120800614356,-0.0121669955551624,-9.805379867553713,3.45498237291915e-06,2.550514186814022e-05,-2.720009933373,2.970163019128172,1.743395445945742,0.4504912952867833,5.28,0.29,0.188,0.269,1.0,10
347,20.0,1744994094.8398695,18.0,0.0,-5.0,-0.104680985212326,0.2009099572896957,0.6908814907073975,-0.1206639781594276,-0.0192433074116706,-9.742938995361328,3.101179644355525e-05,8.991267097992478e-05,-2.720429263050064,2.542517017069585,2.318207908518499,0.5107875919300696,5.28,0.29,0.188,0.269,1.0,11
348,20.0,1744994095.3436265,16.0,0.0,-5.0,-0.0727747678756713,0.1877705156803131,0.6884335279464722,0.0266087055206298,-0.0477971173822879,-9.902746200561523,0.0001112299707997,1.1218100737454868e-05,-2.7209047327809803,2.5675934312989077,2.2788972320928425,0.40776723372412,5.28,0.29,0.188,0.269,1.0,12
349,20.0,1744994095.8537295,14.0,0.0,-5.0,-0.0360033959150314,0.1773595660924911,0.6891164779663086,-0.085357941687107,-0.0565269738435745,-9.842086791992188,0.0001246730152935,1.6778302273053204e-05,-2.7212643246526653,3.3939067990882577,1.8147514465394523,0.5134240866824941,5.28,0.29,0.188,0.269,1.0,13
350,20.0,1744994096.3588665,12.0,0.0,-5.0,-0.0023199811112135,0.1659806370735168,0.6908217668533325,-0.1304673999547958,-0.0047501372173428,-9.776469230651855,6.42154577836898e-05,5.35343176053907e-05,-2.7218435246847967,3.241143850758675,1.6843686707370398,0.4805368801537633,5.28,0.29,0.188,0.269,1.0,14
351,20.0,1744994096.864462,10.0,0.0,-5.0,0.0196404941380023,0.1515230983495712,0.6923494338989258,-0.046992689371109,-0.0560097657144069,-9.809178352355955,1.9089237947126558e-05,2.4872117022026667e-05,-2.72234261055456,2.5916977503820693,1.996722016158988,0.4592177032969603,5.28,0.29,0.188,0.269,1.0,15
352,20.0,1744994098.3727314,8.0,0.0,-5.0,0.096872441470623,0.1304201185703277,0.6992971897125244,-0.0984219536185264,0.0481810346245765,-9.838645935058594,3.4216801929422273e-05,1.584395967002887e-05,-2.723574244038109,2.9002537190156112,2.318309610948914,0.5308642314400251,5.28,0.29,0.188,0.269,1.0,16
353,20.0,1744994098.8762743,6.0,0.0,-5.0,0.1211427301168441,0.1248906403779983,0.7026605606079102,-0.0643982291221618,0.0651979595422744,-9.792377471923828,2.5149336343763004e-05,7.240808255663293e-05,-2.7237935421460806,2.9638099096493686,2.3900947870302343,0.5743784496184298,5.28,0.29,0.188,0.269,1.0,17
354,20.0,1744994099.3806136,4.0,0.0,-5.0,0.1544519364833831,0.1177209317684173,0.7035355567932129,-0.1110639423131942,0.0254513006657362,-9.808514595031738,-2.8542625174708383e-06,2.855861345179864e-05,-2.7241126962592617,3.3709536132454265,2.372883497213029,0.5161290340912681,5.28,0.29,0.188,0.269,1.0,18
355,20.0,1744994099.8843038,2.0,0.0,-5.0,0.1762523502111435,0.1108841449022293,0.7018361687660217,0.0400677919387817,-0.0110113378614187,-9.835206031799316,-1.69483847377008e-05,-3.7994339569192185e-05,-2.7244485878441447,3.0186792163644878,1.860139928012146,0.4727400739115968,5.28,0.29,0.188,0.269,1.0,19
356,20.0,1744994100.3880095,0.0,0.0,-5.0,0.1983699947595596,0.1038839593529701,0.6991626620292664,-0.0780707374215126,-0.0552498921751976,-9.789161682128906,6.145987598933944e-07,8.997091637828343e-05,-2.7247210617994835,3.316623839144073,1.5915509161300398,0.4623616985078403,5.28,0.29,0.188,0.269,1.0,20
357,21.0,1744994115.3833926,0.0,0.0,-5.0,1.0900005102157593,0.170991376042366,0.2906269133090973,-0.0364140234887599,-0.0046268478035926,-9.82601261138916,-0.1673572396343962,-0.1138063164808669,-2.268042216190089,2.7258678141986223,1.5203872583903124,0.4901195877629128,16.69,0.26,0.253,0.438,1.0,0
358,21.0,1744994130.9176557,2.684990644454956,-0.2045193463563919,-5.022331237792969,0.0353244990110397,-0.6517497301101685,-0.0054736277088522,-0.0755181387066841,-0.0196358561515808,-10.00165843963623,-0.0503191895497038,-0.1757310674056577,-2.524860556349192,2.6241788212853754,1.949525200608459,0.4052966447137309,16.69,0.26,0.253,0.438,1.0,1
359,21.0,1744994133.460503,4.1103715896606445,-0.1117997989058494,-5.034126281738281,0.3290789425373077,0.5032942295074463,0.0354231856763362,-0.0399159342050552,-0.0115127051249146,-9.812670707702637,-0.0914641393242999,-0.0129008704119145,-2.545218113484998,2.927947513266655,2.062636157111215,0.5330857790800838,16.69,0.26,0.253,0.438,1.0,2
360,21.0,1744994135.8484476,5.947343349456787,0.1229883208870887,-5.016258239746094,0.4881536662578583,-0.350735455751419,0.0143913095816969,-0.0593923404812812,0.0237232912331819,-9.82569980621338,-0.0520683162167238,-0.065208310903967,-2.5633691316708105,2.606008138061976,1.6585779380444756,0.4203521339431922,16.69,0.26,0.253,0.438,1.0,3
361,21.0,1744994138.1806104,8.166064262390137,-0.3105089068412781,-5.008941650390625,0.5303986668586731,0.2781956195831299,0.0191357191652059,-0.0398714840412139,0.0095447627827525,-9.883502960205078,-0.0888549803424289,-0.0849740871118186,-2.573019932676861,3.4803518622783183,1.7928931766386884,0.4163490619203324,16.69,0.26,0.253,0.438,1.0,4
362,21.0,1744994140.2511058,9.916969299316406,0.2257836312055587,-5.003227233886719,0.5150918960571289,-0.0661786645650863,0.0137364417314529,-0.02096788585186,-0.0602472908794879,-9.782816886901855,-0.0822474957904914,-0.0205933587234721,-2.59159340051219,2.8577084480891,2.1623814700246875,0.4203688409583768,16.69,0.26,0.253,0.438,1.0,5
363,21.0,1744994142.535365,11.991374969482422,-0.2066398561000824,-5.0069580078125,0.6154667139053345,-0.0311925914138555,0.0132985655218362,-0.0338381230831146,-0.0157464407384395,-9.848284721374512,-0.06588397835199,-0.0920536812458225,-2.603551300842138,2.949865823590086,1.5525893880302872,0.4976715464962396,16.69,0.26,0.253,0.438,1.0,6
364,21.0,1744994144.6093538,13.9863920211792,-0.0176989696919918,-5.007720947265625,0.6013571619987488,0.1453025043010711,0.0203422252088785,-0.0955900400876998,-0.0460049174726009,-9.712109565734863,-0.0920878434022251,-0.0441632463117317,-2.616691441913705,2.98668758386518,2.287469641177432,0.5081681114049539,16.69,0.26,0.253,0.438,1.0,7
365,21.0,1744994146.728662,15.92845630645752,0.072043240070343,-5.00537109375,0.622825562953949,-0.1150403171777725,0.0168568883091211,-0.089377611875534,-0.0152182839810848,-9.862428665161133,-0.0798554745957683,-0.0541868464319302,-2.631013031677939,3.4709145244260484,2.032854231239289,0.5145600486609669,16.69,0.26,0.253,0.438,1.0,8
366,21.0,1744994148.030466,17.97733497619629,-0.1369462311267852,-5.002708435058594,0.6217661499977112,0.062773510813713,0.0122054209932684,-0.0014865957200527,-0.0573826879262924,-9.809372901916504,-0.0790246515770539,-0.0684649811848951,-2.6444227279745194,2.808808685344144,1.6412730391657502,0.5955710123651051,16.69,0.26,0.253,0.438,1.0,9
367,21.0,1744994150.1146834,19.93978500366211,0.0359242893755435,-5.003288269042969,0.6535512208938599,0.0430563390254974,0.0148951755836606,-0.16316619515419,0.0405138507485389,-9.849376678466797,-0.0926720040115245,-0.0433872929387336,-2.658739889270273,3.344366908413679,2.0345859913833286,0.5004847651478226,16.69,0.26,0.253,0.438,1.0,10
368,21.0,1744994152.5258162,17.621599197387695,0.1143596544861793,-4.9788970947265625,-0.9588347673416138,-0.0738264545798301,-0.0473654419183731,-0.1278258562088012,-0.0475609675049781,-9.906424522399902,0.1486642269836895,0.0809586732184787,-2.673636978315732,2.914318103648351,2.497334461161957,0.4002941068689784,16.69,0.26,0.253,0.438,1.0,11
369,21.0,1744994153.8486435,16.021162033081055,-0.0407557263970375,-5.019134521484375,-0.641974151134491,-0.069891907274723,-0.0154362237080931,-0.151639923453331,-0.0288471970707178,-9.7777681350708,0.0809372015441719,0.0180352347164454,-2.6872008734691604,3.1587824328807272,2.2510734765467046,0.4701001892235403,16.69,0.26,0.253,0.438,1.0,12
370,21.0,1744994157.1615174,13.683852195739746,0.0302553512156009,-4.906730651855469,-0.1263668686151504,0.0703534036874771,0.5377328395843506,-0.0506189987063407,0.0212130155414342,-9.097065925598145,0.0055050234237045,0.0021580420241978,-2.692600618411075,3.4318349756975146,1.615585573680692,0.4735073253753595,16.69,0.26,0.253,0.438,1.0,13
